Time(ms),Accel Time(ms),Accel X (mg),Accel Y (mg),Accel Z (mg),Light Time(ms),Light (lux),UV Index,Weather Time(ms),Humidity (%),Temperature (C),Air Quality Time(ms),CO2 (ppm),Ethanol (raw),H2 (raw),TVOC (ppb),BME688 Time(ms),Temperature (C),Pressure (Pa),Humidity (%),Gas Resistance (Ohms),Gas Index,Status,Heater Stable,IDAC,Meas Index,Gas Valid
18500825,18500606,-0.164062,0.015625,1.070312,18500608,39,0.498571,18500616,16.960335,36.29,18500778,400,20044,15027,2184,18499806,33.627861,87636.11719,20.042719,102400000,0,1,96,50,1,2779096485
18501844,18501625,-0.179688,0,1.046875,18501627,39,0.5,18501635,16.993237,36.29,18501797,400,20047,15029,2198,18501844,32.896908,87635.98438,19.960787,102400000,0,1,96,60,1,2779096485
18502863,18502644,-0.171875,0,1.0625,18502646,39,0.500714,18502654,16.98761,36.28,18502816,400,20052,15028,2203,18501844,32.896908,87635.98438,19.960787,102400000,0,1,96,60,1,2779096485
18503882,18503663,-0.1875,0,1.046875,18503665,39,0.503571,18503673,16.994667,36.25,18503835,400,20046,15031,2230,18501844,32.896908,87635.98438,19.960787,102400000,0,1,96,60,1,2779096485
18504901,18504682,-0.179688,0.015625,1.085938,18504684,39,0.497857,18504692,17.02013,36.23,18504854,400,20044,15024,2228,18501844,32.896908,87635.98438,19.960787,102400000,0,1,96,60,1,2779096485
18505920,18505701,-0.171875,0.015625,1.054688,18505703,39,0.501429,18505711,17.026234,36.26,18505873,400,20040,15024,2214,18501844,32.896908,87635.98438,19.960787,102400000,0,1,96,60,1,2779096485
18506939,18506720,-0.179688,0.007812,1.0625,18506722,39,0.498571,18506730,17.032623,36.28,18506892,400,20040,15029,2207,18501844,32.896908,87635.98438,19.960787,102400000,0,1,96,60,1,2779096485
18507958,18507739,-0.171875,0.007812,1.046875,18507741,39,0.501429,18507749,17.068481,36.28,18507911,400,20043,15024,2180,18501844,32.896908,87635.98438,19.960787,102400000,0,1,96,60,1,2779096485
18508977,18508758,-0.171875,0.023438,1.078125,18508760,39,0.5,18508768,17.04874,36.28,18508930,400,20042,15029,2187,18501844,32.896908,87635.98438,19.960787,102400000,0,1,96,60,1,2779096485
18509996,18509777,-0.179688,-0.015625,1.054688,18509779,39,0.497143,18509787,17.016602,36.24,18509949,400,20040,15021,2217,18501844,32.896908,87635.98438,19.960787,102400000,0,1,96,60,1,2779096485
18511015,18510796,-0.171875,0.007812,1.023438,18510798,39,0.5,18510806,17.031479,36.21,18510968,400,20033,15022,2235,18511015,33.958054,87635.875,20.441776,735368.0625,0,1,170,110,1,2779096485
18512034,18511815,-0.179688,0,1.070312,18511817,39,0.503571,18511825,17.056465,36.24,18511987,400,20032,15019,2265,18512034,34.094162,87635.23438,20.368746,758378.0625,0,1,170,115,1,2779096485
18513053,18512834,-0.179688,0.007812,1.078125,18512836,39,0.498571,18512844,17.05904,36.23,18513006,400,20039,15019,2260,18513053,34.164738,87638.70313,20.271044,781828.5625,0,1,170,120,1,2779096485
18514072,18513853,-0.1875,0.007812,1.046875,18513855,39,0.502143,18513863,16.983223,36.24,18514025,400,20029,15018,2286,18514072,34.210106,87637.55469,20.171764,803452.3125,0,1,170,125,1,2779096485
18515091,18514872,-0.171875,0,1.03125,18514874,39,0.497857,18514882,17.027092,36.24,18515044,400,20027,15011,2302,18514072,34.210106,87637.55469,20.171764,803452.3125,0,1,170,125,1,2779096485
18516110,18515891,-0.171875,-0.015625,1.085938,18515893,39,0.500714,18515901,17.02013,36.26,18516063,400,20029,15025,2254,18514072,34.210106,87637.55469,20.171764,803452.3125,0,1,170,125,1,2779096485
18517129,18516910,-0.171875,0.039062,1.085938,18516912,39,0.502143,18516920,16.970348,36.25,18517082,400,20034,15029,2265,18514072,34.210106,87637.55469,20.171764,803452.3125,0,1,170,125,1,2779096485
18518148,18517929,-0.1875,-0.015625,1.070312,18517931,39,0.5,18517939,17.043495,36.22,18518101,400,20029,15023,2258,18514072,34.210106,87637.55469,20.171764,803452.3125,0,1,170,125,1,2779096485
18519167,18518948,-0.1875,0,1.039062,18518950,39,0.505,18518958,17.034626,36.26,18519120,457,20020,14959,2311,18514072,34.210106,87637.55469,20.171764,803452.3125,0,1,170,125,1,2779096485
18520186,18519967,-0.1875,-0.015625,1.078125,18519969,39,0.502857,18519977,17.0928,36.27,18520139,528,20010,14909,2369,18514072,34.210106,87637.55469,20.171764,803452.3125,0,1,170,125,1,2779096485
18521205,18520986,-0.164062,0.007812,1.101562,18520988,39,0.501429,18520996,17.105389,36.27,18521158,485,20010,14946,2357,18514072,34.210106,87637.55469,20.171764,803452.3125,0,1,170,125,1,2779096485
18522224,18522005,-0.1875,-0.007812,1.078125,18522007,39,0.492857,18522015,17.064857,36.27,18522177,444,20000,14978,2383,18522224,32.733074,87634.38281,20.413765,102400000,0,1,96,167,1,2779096485
18523243,18523024,-0.171875,0,1.085938,18523026,39,0.500714,18523034,16.99667,36.3,18523196,436,20001,14974,2332,18523243,33.373287,87632.28906,20.516365,14757037,0,1,137,172,1,2779096485
18524262,18524043,-0.179688,-0.015625,1.0625,18524045,39,0.524286,18524053,17.009735,36.3,18524215,421,19995,14988,2401,18524262,33.524521,87635.21875,20.50572,14502324,0,1,137,177,1,2779096485
18525281,18525062,-0.1875,0.03125,1.046875,18525064,39,0.522857,18525072,17.007351,36.27,18525234,410,20011,14998,2364,18525281,33.585014,87634.64063,20.478966,14589492,0,1,137,182,1,2779096485
18526300,18526081,-0.179688,0.007812,1.0625,18526083,39,0.519286,18526091,16.989517,36.28,18526253,404,20000,15000,2380,18526300,34.018547,87635.46094,20.445698,729085.0625,0,1,170,187,1,2779096485
18527319,18527100,-0.1875,0.007812,1.070312,18527102,39,0.5,18527110,16.999054,36.3,18527272,411,20007,15000,2353,18527319,34.154655,87634.47656,20.388008,749085.5625,0,1,170,192,1,2779096485
18528338,18528119,-0.179688,-0.007812,1.09375,18528121,39,0.497143,18528129,17.000484,36.34,18528291,430,19990,14984,2399,18528338,34.225231,87634.60156,20.274942,774730.5,0,1,170,197,1,2779096485
18529357,18529138,-0.195312,-0.007812,1.078125,18529140,39,0.5,18529148,17.029381,36.35,18529310,444,20000,14974,2417,18529357,33.70348,87634.69531,20.052628,102400000,0,1,96,204,1,2779096485
18530376,18530157,-0.179688,-0.023438,1.0625,18530159,39,0.502143,18530167,16.983032,36.39,18530329,437,19999,14976,2429,18529357,33.70348,87634.69531,20.052628,102400000,0,1,96,204,1,2779096485
18531395,18531176,-0.179688,-0.015625,1.039062,18531178,39,0.502143,18531186,16.993618,36.35,18531348,461,19991,14960,2415,18531395,32.985126,87634.07813,20.012135,102400000,0,1,96,214,1,2779096485
18532414,18532195,-0.179688,0,1.0625,18532197,39,0.503571,18532205,17.008877,36.43,18532367,505,19982,14923,2501,18531395,32.985126,87634.07813,20.012135,102400000,0,1,96,214,1,2779096485
18533433,18533214,-0.1875,0,1.015625,18533216,39,0.5,18533224,17.002869,36.51,18533386,533,19966,14896,2524,18531395,32.985126,87634.07813,20.012135,102400000,0,1,96,214,1,2779096485
18534452,18534233,-0.164062,0.015625,1.054688,18534235,39,0.500714,18534243,16.904354,36.51,18534405,570,19957,14877,2604,18531395,32.985126,87634.07813,20.012135,102400000,0,1,96,214,1,2779096485
18535471,18535252,-0.179688,0.007812,1.0625,18535254,39,0.500714,18535262,16.871548,36.54,18535424,583,19944,14867,2653,18531395,32.985126,87634.07813,20.012135,102400000,0,1,96,214,1,2779096485
18536490,18536271,-0.171875,0,1.054688,18536273,39,0.497143,18536281,16.885948,36.55,18536443,548,19943,14898,2658,18531395,32.985126,87634.07813,20.012135,102400000,0,1,96,214,1,2779096485
18537509,18537290,-0.179688,0.023438,1.101562,18537292,39,0.498571,18537300,16.882515,36.59,18537462,521,19937,14907,2681,18531395,32.985126,87634.07813,20.012135,102400000,0,1,96,214,1,2779096485
18538528,18538309,-0.164062,0.007812,1.023438,18538311,39,0.498571,18538319,16.849613,36.56,18538481,486,19941,14938,2664,18531395,32.985126,87634.07813,20.012135,102400000,0,1,96,214,1,2779096485
18539547,18539328,-0.179688,0.007812,1.101562,18539330,39,0.496429,18539338,16.82663,36.55,18539500,459,19934,14962,2676,18531395,32.985126,87634.07813,20.012135,102400000,0,1,96,214,1,2779096485
18540566,18540347,-0.179688,-0.007812,1.054688,18540349,39,0.495714,18540357,16.840553,36.56,18540519,464,19941,14953,2669,18531395,32.985126,87634.07813,20.012135,102400000,0,1,96,214,1,2779096485
18541585,18541366,-0.171875,0,1.078125,18541368,39,0.500714,18541376,16.830921,36.57,18541538,487,19927,14934,2697,18531395,32.985126,87634.07813,20.012135,102400000,0,1,96,214,1,2779096485
18542604,18542385,-0.1875,0.007812,1.039062,18542387,39,0.491429,18542395,16.864395,36.59,18542557,496,19930,14930,2706,18531395,32.985126,87634.07813,20.012135,102400000,0,1,96,214,1,2779096485
18543623,18543404,-0.179688,0.015625,1.054688,18543406,39,0.492857,18543414,16.854763,36.63,18543576,493,19933,14943,2699,18531395,32.985126,87634.07813,20.012135,102400000,0,1,96,214,1,2779096485
18544642,18544423,-0.171875,0,1.054688,18544425,39,0.496429,18544433,16.814709,36.64,18544595,482,19936,14943,2720,18531395,32.985126,87634.07813,20.012135,102400000,0,1,96,214,1,2779096485
18545661,18545442,-0.171875,-0.007812,1.078125,18545444,39,0.495714,18545452,16.764259,36.64,18545614,457,19926,14960,2741,18531395,32.985126,87634.07813,20.012135,102400000,0,1,96,214,1,2779096485
18546680,18546461,-0.171875,0.023438,1.0625,18546463,39,0.500714,18546471,16.76569,36.69,18546633,469,19932,14948,2692,18531395,32.985126,87634.07813,20.012135,102400000,0,1,96,214,1,2779096485
18547699,18547480,-0.171875,0.007812,1.070312,18547482,39,0.495714,18547490,16.77494,36.67,18547652,478,19932,14942,2683,18531395,32.985126,87634.07813,20.012135,102400000,0,1,96,214,1,2779096485
18548718,18548499,-0.179688,-0.007812,1.078125,18548501,39,0.5,18548509,16.771793,36.65,18548671,478,19929,14947,2713,18531395,32.985126,87634.07813,20.012135,102400000,0,1,96,214,1,2779096485
18549737,18549518,-0.171875,0.007812,1.039062,18549520,39,0.496429,18549528,16.765022,36.65,18549690,459,19930,14962,2708,18531395,32.985126,87634.07813,20.012135,102400000,0,1,96,214,1,2779096485
18550756,18550537,-0.171875,0,1.0625,18550539,39,0.501429,18550547,16.750336,36.67,18550709,441,19927,14963,2699,18531395,32.985126,87634.07813,20.012135,102400000,0,1,96,214,1,2779096485
18551775,18551556,-0.171875,0.023438,1.046875,18551558,39,0.497143,18551566,16.769409,36.68,18551728,439,19926,14971,2759,18531395,32.985126,87634.07813,20.012135,102400000,0,1,96,214,1,2779096485
18552794,18552575,-0.171875,0.007812,1.085938,18552577,39,0.501429,18552585,16.753769,36.69,18552747,429,19927,14984,2718,18552794,33.650547,87632.14063,20.380972,13814503,0,1,137,70,1,2779096485
18553813,18553594,-0.171875,-0.03125,1.046875,18553596,39,0.497857,18553604,16.715336,36.7,18553766,426,19939,14993,2706,18553813,33.794216,87633.28906,20.364698,13797053,0,1,137,75,1,2779096485
18554832,18554613,-0.179688,0.007812,1.0625,18554615,39,0.497857,18554623,16.708469,36.68,18554785,420,19928,14984,2720,18554832,33.854713,87633.57813,20.312389,13955707,0,1,137,80,1,2779096485
18555851,18555632,-0.1875,0.007812,1.078125,18555634,39,0.5,18555642,16.716194,36.68,18555804,422,19929,14991,2724,18555851,34.280685,87634.51563,20.273405,709386.9375,0,1,170,85,1,2779096485
18556870,18556651,-0.179688,-0.007812,1.054688,18556653,39,0.519286,18556661,16.702175,36.69,18556823,418,19930,14988,2694,18556870,34.429398,87634.75781,20.175631,736161.0625,0,1,170,90,1,2779096485
18557889,18557670,-0.171875,0.007812,1.039062,18557672,39,0.497143,18557680,16.696548,36.76,18557842,442,19926,14978,2708,18557889,34.505013,87634.89063,20.062971,762614.0625,0,1,170,95,1,2779096485
18558908,18558689,-0.179688,0.007812,1.039062,18558691,39,0.495,18558699,16.686249,36.81,18558861,509,19915,14924,2784,18558908,34.560467,87633.21875,19.969505,789971.0625,0,1,170,100,1,2779096485
18559927,18559708,-0.171875,0.007812,1.054688,18559710,39,0.496429,18559718,16.6502,36.82,18559880,505,19906,14921,2812,18558908,34.560467,87633.21875,19.969505,789971.0625,0,1,170,100,1,2779096485
18560946,18560727,-0.1875,0,1.046875,18560729,39,0.498571,18560737,16.693211,36.79,18560899,483,19908,14948,2824,18560946,33.257343,87628.88281,19.795395,102400000,0,1,96,112,1,2779096485
18561967,18561748,-0.164062,0.007812,1.03125,18561750,39,0.5,18561758,16.713047,36.8,18561920,479,19899,14941,2858,18560946,33.257343,87628.88281,19.795395,102400000,0,1,96,112,1,2779096485
18562986,18562767,-0.1875,-0.007812,1.046875,18562769,39,0.502857,18562777,16.723824,36.87,18562939,534,19889,14902,2893,18560946,33.257343,87628.88281,19.795395,102400000,0,1,96,112,1,2779096485
18564005,18563786,-0.171875,-0.007812,1.046875,18563788,39,0.498571,18563796,16.693401,36.91,18563958,547,19896,14891,2888,18560946,33.257343,87628.88281,19.795395,102400000,0,1,96,112,1,2779096485
18565024,18564805,-0.1875,0,1.085938,18564807,39,0.495714,18564815,16.68644,36.97,18564977,578,19875,14864,2937,18560946,33.257343,87628.88281,19.795395,102400000,0,1,96,112,1,2779096485
18566043,18565824,-0.171875,0.007812,1.046875,18565826,39,0.498571,18565834,16.618252,37.05,18565996,598,19867,14858,2997,18560946,33.257343,87628.88281,19.795395,102400000,0,1,96,112,1,2779096485
18567062,18566843,-0.195312,0.007812,1.101562,18566845,39,0.495714,18566853,16.560841,37.02,18567015,643,19858,14824,3041,18567062,33.133839,87632.47656,20.220192,102400000,0,1,95,142,1,2779096485
18568081,18567862,-0.171875,-0.007812,1.03125,18567864,39,0.492143,18567872,16.559601,37.03,18568034,575,19852,14871,3078,18568081,33.796738,87632.60156,20.318869,13366510,0,1,137,147,1,2779096485
18569100,18568881,-0.1875,-0.007812,1.03125,18568883,39,0.498571,18568891,16.569233,37.02,18569053,522,19851,14909,3064,18569100,33.942928,87632.33594,20.307854,13149278,0,1,137,152,1,2779096485
18570119,18569900,-0.164062,0.015625,1.046875,18569902,39,0.497857,18569910,16.538715,37.02,18570072,498,19849,14934,3103,18570119,34.005943,87633.85156,20.271034,13498661,0,1,137,157,1,2779096485
18571138,18570919,-0.179688,0.007812,1.039062,18570921,39,0.500714,18570929,16.545391,37.03,18571091,492,19845,14941,3098,18570119,34.005943,87633.85156,20.271034,13498661,0,1,137,157,1,2779096485
18572157,18571938,-0.171875,-0.023438,1.054688,18571940,39,0.500714,18571948,16.484547,37.03,18572110,478,19847,14946,3123,18570119,34.005943,87633.85156,20.271034,13498661,0,1,137,157,1,2779096485
18573176,18572957,-0.1875,-0.007812,1.046875,18572959,39,0.502857,18572967,16.454315,37.06,18573129,466,19855,14956,3088,18570119,34.005943,87633.85156,20.271034,13498661,0,1,137,157,1,2779096485
18574195,18573976,-0.164062,0.007812,1.054688,18573978,39,0.496429,18573986,16.504765,37.06,18574148,457,19858,14956,3036,18574195,34.131969,87635.47656,19.794479,102400000,0,1,95,179,1,2779096485
18575214,18574995,-0.171875,0.007812,1.046875,18574997,39,0.5,18575005,16.456509,37.05,18575167,472,19852,14946,3057,18574195,34.131969,87635.47656,19.794479,102400000,0,1,95,179,1,2779096485
18576233,18576014,-0.171875,-0.007812,1.0625,18576016,39,0.497857,18576024,16.48283,37.07,18576186,467,19851,14959,3158,18576233,33.406055,87629.71875,19.698015,102400000,0,1,96,189,1,2779096485
18577252,18577033,-0.179688,-0.015625,1.03125,18577035,39,0.492857,18577043,16.475868,37.06,18577205,457,19852,14963,3043,18576233,33.406055,87629.71875,19.698015,102400000,0,1,96,189,1,2779096485
18578271,18578052,-0.179688,0.015625,1.070312,18578054,39,0.497143,18578062,16.468811,37.09,18578224,452,19851,14968,3031,18576233,33.406055,87629.71875,19.698015,102400000,0,1,96,189,1,2779096485
18579290,18579071,-0.171875,-0.007812,1.046875,18579073,39,0.500714,18579081,16.404724,37.06,18579243,431,19857,14979,2978,18576233,33.406055,87629.71875,19.698015,102400000,0,1,96,189,1,2779096485
18580309,18580090,-0.179688,-0.007812,1.039062,18580092,39,0.501429,18580100,16.390228,37.06,18580262,439,19866,14977,3006,18576233,33.406055,87629.71875,19.698015,102400000,0,1,96,189,1,2779096485
18581328,18581109,-0.1875,-0.007812,1.085938,18581111,39,0.516429,18581119,16.418934,37.05,18581281,433,19868,14977,3013,18576233,33.406055,87629.71875,19.698015,102400000,0,1,96,189,1,2779096485
18582347,18582128,-0.171875,-0.015625,1.0625,18582130,39,0.515714,18582138,16.389275,37.03,18582300,431,19864,14979,2995,18576233,33.406055,87629.71875,19.698015,102400000,0,1,96,189,1,2779096485
18583366,18583147,-0.179688,0,1.101562,18583149,39,0.512143,18583157,16.448021,37.01,18583319,445,19875,14980,3036,18576233,33.406055,87629.71875,19.698015,102400000,0,1,96,189,1,2779096485
18584385,18584166,-0.179688,-0.015625,1.039062,18584168,39,0.511429,18584176,16.471004,36.99,18584338,433,19872,14980,2988,18576233,33.406055,87629.71875,19.698015,102400000,0,1,96,189,1,2779096485
18585404,18585185,-0.171875,-0.015625,1.039062,18585187,39,0.491429,18585195,16.466618,37.01,18585357,439,19869,14979,3006,18576233,33.406055,87629.71875,19.698015,102400000,0,1,96,189,1,2779096485
18586423,18586204,-0.171875,0.015625,1.085938,18586206,39,0.495,18586214,16.547585,37.01,18586376,448,19869,14972,2978,18586423,34.636086,87634.75781,19.948805,740151.8125,0,1,170,244,1,2779096485
18587442,18587223,-0.179688,-0.007812,1.039062,18587225,39,0.490714,18587233,16.554737,37.02,18587395,450,19881,14969,2999,18587442,34.706657,87633.8125,19.866543,757536.5,0,1,170,249,1,2779096485
18588461,18588242,-0.179688,0,1.070312,18588244,39,0.501429,18588252,16.531944,36.99,18588414,442,19867,14972,2990,18588461,34.741947,87632.80469,19.761679,794106.25,0,1,169,254,1,2779096485
18589480,18589261,-0.171875,-0.007812,1.0625,18589263,39,0.498571,18589271,16.530228,37,18589433,438,19876,14977,2944,18588461,34.741947,87632.80469,19.761679,794106.25,0,1,169,254,1,2779096485
18590499,18590280,-0.1875,0,1.101562,18590282,39,0.497143,18590290,16.498375,37.03,18590452,427,19883,14980,2939,18588461,34.741947,87632.80469,19.761679,794106.25,0,1,169,254,1,2779096485
18591518,18591299,-0.171875,0.007812,1.09375,18591301,39,0.493571,18591309,16.432667,37,18591471,423,19895,14986,2925,18588461,34.741947,87632.80469,19.761679,794106.25,0,1,169,254,1,2779096485
18592537,18592318,-0.179688,0.007812,1.054688,18592320,39,0.496429,18592328,16.453838,37.01,18592490,429,19883,14983,2877,18588461,34.741947,87632.80469,19.761679,794106.25,0,1,169,254,1,2779096485
18593556,18593337,-0.179688,0.007812,1.046875,18593339,39,0.500714,18593347,16.473007,37.02,18593509,449,19886,14966,2911,18588461,34.741947,87632.80469,19.761679,794106.25,0,1,169,254,1,2779096485
18594575,18594356,-0.1875,-0.007812,1.0625,18594358,39,0.5,18594366,16.503334,37.03,18594528,525,19881,14919,2967,18588461,34.741947,87632.80469,19.761679,794106.25,0,1,169,254,1,2779096485
18595594,18595375,-0.1875,-0.007812,1.054688,18595377,39,0.497143,18595385,16.561127,37.03,18595547,522,19872,14911,2958,18588461,34.741947,87632.80469,19.761679,794106.25,0,1,169,254,1,2779096485
18596613,18596394,-0.179688,0.015625,1.085938,18596396,39,0.495714,18596404,16.518879,37.01,18596566,474,19868,14949,2971,18596613,33.224575,87630.39063,19.996758,102400000,0,1,96,40,1,2779096485
18597632,18597413,-0.179688,-0.015625,1.023438,18597415,39,0.493571,18597423,16.491699,37.03,18597585,475,19876,14952,2997,18597632,33.895042,87633.47656,20.100542,14265564,0,1,137,45,1,2779096485
18598651,18598432,-0.164062,-0.007812,1.0625,18598434,39,0.498571,18598442,16.494083,37.04,18598604,493,19872,14941,2946,18598651,34.031151,87632.32031,20.083725,14246957,0,1,137,50,1,2779096485
18599670,18599451,-0.1875,0.007812,1.0625,18599453,39,0.501429,18599461,16.506767,37.03,18599623,468,19869,14952,3018,18599670,34.09164,87634.89063,20.051868,14219136,0,1,137,55,1,2779096485
18600689,18600470,-0.171875,0.007812,1.070312,18600472,39,0.498571,18600480,16.474724,37.05,18600642,449,19879,14967,2983,18600689,34.522659,87633.16406,20.023249,711605.3125,0,1,170,60,1,2779096485
18601708,18601489,-0.1875,0,1.054688,18601491,39,0.502143,18601499,16.421795,37.05,18601661,446,19868,14965,2969,18601708,34.666328,87632.85938,19.950733,743375.6875,0,1,170,65,1,2779096485
18602727,18602508,-0.179688,0,1.054688,18602510,39,0.497143,18602518,16.420364,37.06,18602680,429,19883,14982,2962,18602727,34.726826,87633.30469,19.847416,765607.5,0,1,170,70,1,2779096485
18603746,18603527,-0.164062,0.007812,1.046875,18603529,39,0.492857,18603537,16.395187,37.04,18603699,433,19879,14979,2925,18603746,34.189945,87635.59375,19.630177,102400000,0,1,95,77,1,2779096485
18604765,18604546,-0.164062,0.015625,1.039062,18604548,39,0.496429,18604556,16.403961,37.02,18604718,424,19884,14983,2937,18603746,34.189945,87635.59375,19.630177,102400000,0,1,95,77,1,2779096485
18605784,18605565,-0.179688,-0.015625,1.070312,18605567,39,0.498571,18605575,16.440964,37.05,18605737,425,19882,14984,2939,18605784,33.47411,87631.08594,19.534719,102400000,0,1,95,87,1,2779096485
18606803,18606584,-0.171875,0,1.0625,18606586,39,0.491429,18606594,16.405869,37.06,18606756,429,19896,14989,2893,18605784,33.47411,87631.08594,19.534719,102400000,0,1,95,87,1,2779096485
18607822,18607603,-0.179688,0.015625,1.0625,18607605,39,0.497857,18607613,16.405487,37.06,18607775,448,19882,14970,2928,18605784,33.47411,87631.08594,19.534719,102400000,0,1,95,87,1,2779096485
18608841,18608622,-0.1875,0.023438,1.0625,18608624,39,0.496429,18608632,16.445541,37.05,18608794,440,19889,14976,2898,18605784,33.47411,87631.08594,19.534719,102400000,0,1,95,87,1,2779096485
18609860,18609641,-0.1875,0.03125,1.046875,18609643,39,0.495714,18609651,16.42065,37.03,18609813,434,19885,14980,2916,18605784,33.47411,87631.08594,19.534719,102400000,0,1,95,87,1,2779096485
18610879,18610660,-0.164062,0.015625,1.078125,18610662,39,0.495714,18610670,16.405773,37,18610832,434,19890,14983,2960,18605784,33.47411,87631.08594,19.534719,102400000,0,1,95,87,1,2779096485
18611898,18611679,-0.179688,0,1.0625,18611681,39,0.495714,18611689,16.423035,37,18611851,436,19890,14980,2879,18611898,33.272469,87628.21875,19.898026,102400000,0,1,95,117,1,2779096485
18612917,18612698,-0.171875,0.007812,1.039062,18612700,39,0.495,18612708,16.432762,37.01,18612870,431,19891,14983,2900,18611898,33.272469,87628.21875,19.898026,102400000,0,1,95,117,1,2779096485
18613936,18613717,-0.1875,0.007812,1.085938,18613719,39,0.497857,18613727,16.480637,37.01,18613889,442,19896,14982,2939,18611898,33.272469,87628.21875,19.898026,102400000,0,1,95,117,1,2779096485
18614955,18614736,-0.1875,0.007812,1.078125,18614738,39,0.496429,18614746,16.43343,36.99,18614908,433,19887,14978,2893,18611898,33.272469,87628.21875,19.898026,102400000,0,1,95,117,1,2779096485
18615974,18615755,-0.1875,0.015625,1.0625,18615757,39,0.515714,18615765,16.446686,37,18615927,434,19887,14983,2895,18611898,33.272469,87628.21875,19.898026,102400000,0,1,95,117,1,2779096485
18616993,18616774,-0.171875,0,1.0625,18616776,39,0.498571,18616784,16.457081,37,18616946,439,19891,14979,2962,18611898,33.272469,87628.21875,19.898026,102400000,0,1,95,117,1,2779096485
18618012,18617793,-0.179688,0.023438,1.0625,18617795,39,0.495,18617803,16.452885,37,18617965,438,19889,14980,2886,18611898,33.272469,87628.21875,19.898026,102400000,0,1,95,117,1,2779096485
18619031,18618812,-0.15625,0,1.070312,18618814,39,0.497143,18618822,16.447544,36.96,18618984,445,19894,14975,2872,18619031,34.235313,87635.48438,19.551661,102400000,0,1,95,154,1,2779096485
18620050,18619831,-0.1875,0,1.070312,18619833,39,0.493571,18619841,16.454411,36.96,18620003,436,19909,14981,2826,18619031,34.235313,87635.48438,19.551661,102400000,0,1,95,154,1,2779096485
18621069,18620850,-0.179688,0.023438,1.054688,18620852,39,0.495,18620860,16.447544,37,18621022,435,19903,14975,2801,18619031,34.235313,87635.48438,19.551661,102400000,0,1,95,154,1,2779096485
18622088,18621869,-0.179688,0,1.046875,18621871,39,0.496429,18621879,16.472912,37,18622041,433,19914,14977,2775,18619031,34.235313,87635.48438,19.551661,102400000,0,1,95,154,1,2779096485
18623107,18622888,-0.171875,0.007812,1.085938,18622890,39,0.497857,18622898,16.450977,37,18623060,437,19916,14973,2794,18619031,34.235313,87635.48438,19.551661,102400000,0,1,95,154,1,2779096485
18624126,18623907,-0.171875,-0.007812,1.039062,18623909,39,0.496429,18623917,16.45689,36.96,18624079,455,19940,14962,2685,18619031,34.235313,87635.48438,19.551661,102400000,0,1,95,154,1,2779096485
18625145,18624926,-0.164062,0.007812,1.039062,18624928,39,0.496429,18624936,16.585445,36.96,18625098,484,19971,14945,2517,18619031,34.235313,87635.48438,19.551661,102400000,0,1,95,154,1,2779096485
18626164,18625945,-0.171875,0.007812,1.054688,18625947,39,0.488571,18625955,16.575623,36.97,18626117,475,20035,14952,2274,18619031,34.235313,87635.48438,19.551661,102400000,0,1,95,154,1,2779096485
18627183,18626964,-0.195312,0.023438,1.039062,18626966,39,0.497857,18626974,16.568375,36.99,18627136,467,20078,14953,2046,18619031,34.235313,87635.48438,19.551661,102400000,0,1,95,154,1,2779096485
18628202,18627983,-0.179688,0.007812,1.070312,18627985,39,0.5,18627993,16.557503,36.99,18628155,445,20121,14964,1815,18628202,34.142052,87634.27344,19.968372,9972002,0,1,137,204,1,2779096485
18629221,18629002,-0.179688,0.03125,1.046875,18629004,39,0.496429,18629012,16.532612,36.96,18629174,431,20147,14987,1695,18629221,34.200027,87636.65625,19.936363,9553353,0,1,137,209,1,2779096485
18630240,18630021,-0.195312,0.007812,1.117188,18630023,39,0.496429,18630031,16.522503,36.9,18630193,410,20172,14999,1651,18630240,34.618439,87631.91406,19.911959,639600.25,0,1,169,214,1,2779096485
18631259,18631040,-0.179688,-0.007812,1.0625,18631042,39,0.496429,18631050,16.646671,36.82,18631212,400,20155,15001,1686,18631259,34.744469,87633.6875,19.828135,680398.6875,0,1,169,219,1,2779096485
18632278,18632059,-0.203125,-0.015625,1.078125,18632061,39,0.495714,18632069,16.751766,36.79,18632231,400,20137,15005,1778,18632278,34.802441,87632.375,19.734917,730645.75,0,1,170,224,1,2779096485
18633297,18633078,-0.171875,0.039062,1.03125,18633080,39,0.498571,18633088,16.829395,36.71,18633250,404,20114,15000,1873,18633297,34.832687,87634.6875,19.650188,766467.0625,0,1,169,229,1,2779096485
18634316,18634097,-0.1875,0.015625,1.0625,18634099,39,0.497143,18634107,16.941357,36.56,18634269,400,20091,15008,1910,18633297,34.832687,87634.6875,19.650188,766467.0625,0,1,169,229,1,2779096485
18635335,18635116,-0.171875,0.015625,1.039062,18635118,39,0.5,18635126,17.07058,36.4,18635288,400,20083,15003,2069,18633297,34.832687,87634.6875,19.650188,766467.0625,0,1,169,229,1,2779096485
18636354,18636135,-0.195312,0.03125,1.0625,18636137,39,0.498571,18636145,17.088604,36.31,18636307,402,20067,15005,2108,18633297,34.832687,87634.6875,19.650188,766467.0625,0,1,169,229,1,2779096485
18637373,18637154,-0.179688,0.015625,1.046875,18637156,39,0.501429,18637164,17.133427,36.29,18637326,406,20052,15000,2198,18633297,34.832687,87634.6875,19.650188,766467.0625,0,1,169,229,1,2779096485
18638392,18638173,-0.179688,-0.039062,1.085938,18638175,39,0.5,18638183,17.145157,36.24,18638345,405,20036,14999,2244,18633297,34.832687,87634.6875,19.650188,766467.0625,0,1,169,229,1,2779096485
18639411,18639192,-0.179688,-0.007812,1.078125,18639194,39,0.500714,18639202,17.190075,36.15,18639364,423,20019,14990,2374,18633297,34.832687,87634.6875,19.650188,766467.0625,0,1,169,229,1,2779096485
18640430,18640211,-0.1875,0.023438,1.046875,18640213,39,0.502143,18640221,17.273045,36.1,18640383,419,20000,14989,2429,18633297,34.832687,87634.6875,19.650188,766467.0625,0,1,169,229,1,2779096485
18641449,18641230,-0.179688,0.023438,1.085938,18641232,39,0.497143,18641240,17.331886,36.04,18641402,420,19998,14987,2410,18641449,33.103592,87633.99219,20.04508,102400000,0,1,96,15,1,2779096485
18642468,18642249,-0.1875,0.007812,1.0625,18642251,39,0.498571,18642259,17.330837,35.99,18642421,412,19996,14993,2443,18642468,33.751366,87632.86719,20.167887,14009406,0,1,137,20,1,2779096485
18643487,18643268,-0.195312,0.007812,1.023438,18643270,39,0.497143,18643278,17.339611,35.96,18643440,428,19975,14988,2521,18643487,33.884956,87633.28906,20.171335,13937899,0,1,137,25,1,2779096485
18644506,18644287,-0.179688,0,1.039062,18644289,39,0.496429,18644297,17.379189,35.93,18644459,423,19969,14985,2535,18644506,33.942928,87633.5625,20.13932,14368779,0,1,137,30,1,2779096485
18645525,18645306,-0.179688,-0.023438,1.039062,18645308,39,0.495,18645316,17.383575,35.89,18645478,425,19968,14988,2604,18645525,34.366383,87634.47656,20.115385,707915.6875,0,1,170,35,1,2779096485
18646544,18646325,-0.179688,0,1.070312,18646327,39,0.502143,18646335,17.483807,35.86,18646497,426,19962,14989,2607,18646544,34.492409,87635.74219,20.04174,735368.0625,0,1,170,40,1,2779096485
18647563,18647344,-0.171875,0.023438,1.015625,18647346,39,0.517143,18647354,17.52758,35.81,18647516,428,19952,14987,2618,18646544,34.492409,87635.74219,20.04174,735368.0625,0,1,170,40,1,2779096485
18648582,18648363,-0.1875,-0.007812,1.0625,18648365,39,0.493571,18648373,17.549419,35.78,18648535,422,19955,14984,2616,18648582,34.005943,87636.13281,19.781443,102400000,0,1,95,52,1,2779096485
18649601,18649382,-0.171875,0,1.015625,18649384,39,0.491429,18649392,17.559242,35.7,18649554,424,19948,14995,2648,18648582,34.005943,87636.13281,19.781443,102400000,0,1,95,52,1,2779096485
18650620,18650401,-0.1875,0.007812,1.09375,18650403,39,0.496429,18650411,17.593956,35.66,18650573,422,19947,14996,2641,18650620,33.242222,87629.72656,19.728401,102400000,0,1,96,62,1,2779096485
18651639,18651420,-0.171875,0,1.0625,18651422,39,0.497857,18651430,17.623997,35.67,18651592,422,19943,14997,2641,18650620,33.242222,87629.72656,19.728401,102400000,0,1,96,62,1,2779096485
18652658,18652439,-0.1875,-0.007812,1.054688,18652441,39,0.498571,18652449,17.638493,35.68,18652611,405,19949,14998,2632,18650620,33.242222,87629.72656,19.728401,102400000,0,1,96,62,1,2779096485
18653677,18653458,-0.15625,0.015625,1.023438,18653460,39,0.5,18653468,17.656898,35.69,18653630,409,19955,15001,2611,18650620,33.242222,87629.72656,19.728401,102400000,0,1,96,62,1,2779096485
18654696,18654477,-0.195312,0,1.046875,18654479,39,0.492143,18654487,17.634678,35.69,18654649,409,19952,15000,2625,18650620,33.242222,87629.72656,19.728401,102400000,0,1,96,62,1,2779096485
18655715,18655496,-0.171875,-0.007812,1.070312,18655498,39,0.492857,18655506,17.599678,35.67,18655668,402,19951,15005,2597,18650620,33.242222,87629.72656,19.728401,102400000,0,1,96,62,1,2779096485
18656734,18656515,-0.195312,0,1.070312,18656517,39,0.493571,18656525,17.628193,35.62,18656687,401,19950,15007,2623,18650620,33.242222,87629.72656,19.728401,102400000,0,1,96,62,1,2779096485
18657753,18657534,-0.171875,0,1.054688,18657536,39,0.493571,18657544,17.604733,35.59,18657706,400,19955,15004,2602,18650620,33.242222,87629.72656,19.728401,102400000,0,1,96,62,1,2779096485
18658772,18658553,-0.179688,0,1.070312,18658555,39,0.495,18658563,17.638016,35.5,18658725,400,19961,15013,2607,18650620,33.242222,87629.72656,19.728401,102400000,0,1,96,62,1,2779096485
18659791,18659572,-0.1875,0,1.054688,18659574,39,0.495714,18659582,17.657852,35.47,18659744,401,19944,14998,2593,18650620,33.242222,87629.72656,19.728401,102400000,0,1,96,62,1,2779096485
18660810,18660591,-0.1875,-0.007812,1.085938,18660593,39,0.491429,18660601,17.673016,35.43,18660763,400,19957,15009,2574,18650620,33.242222,87629.72656,19.728401,102400000,0,1,96,62,1,2779096485
18661829,18661610,-0.171875,0.015625,1.03125,18661612,39,0.500714,18661620,17.738247,35.38,18661782,400,19961,15009,2574,18650620,33.242222,87629.72656,19.728401,102400000,0,1,96,62,1,2779096485
18662848,18662629,-0.171875,0.023438,1.046875,18662631,39,0.495,18662639,17.786407,35.35,18662801,400,19962,15008,2586,18662848,34.378986,87635.20313,19.988558,806775.625,0,1,170,127,1,2779096485
18663867,18663648,-0.179688,0.015625,1.03125,18663650,39,0.495714,18663658,17.795753,35.36,18663820,400,19962,15008,2588,18662848,34.378986,87635.20313,19.988558,806775.625,0,1,170,127,1,2779096485
18664886,18664667,-0.171875,0.007812,1.03125,18664669,39,0.497857,18664677,17.824459,35.34,18664839,400,19967,15015,2561,18662848,34.378986,87635.20313,19.988558,806775.625,0,1,170,127,1,2779096485
18665905,18665686,-0.1875,0.015625,1.054688,18665688,39,0.497143,18665696,17.834663,35.31,18665858,400,19964,15013,2561,18662848,34.378986,87635.20313,19.988558,806775.625,0,1,170,127,1,2779096485
18666924,18666705,-0.171875,0.023438,1.09375,18666707,39,0.496429,18666715,17.832947,35.25,18666877,400,19965,15018,2574,18662848,34.378986,87635.20313,19.988558,806775.625,0,1,170,127,1,2779096485
18667943,18667724,-0.195312,0,1.039062,18667726,39,0.497143,18667734,17.921066,35.19,18667896,400,19964,15017,2521,18662848,34.378986,87635.20313,19.988558,806775.625,0,1,170,127,1,2779096485
18668962,18668743,-0.171875,0.007812,1.007812,18668745,39,0.498571,18668753,18.010712,35.12,18668915,400,19969,15017,2551,18662848,34.378986,87635.20313,19.988558,806775.625,0,1,170,127,1,2779096485
18669981,18669762,-0.1875,0.007812,1.015625,18669764,39,0.497143,18669772,17.996025,35.14,18669934,400,19975,15017,2507,18662848,34.378986,87635.20313,19.988558,806775.625,0,1,170,127,1,2779096485
18671000,18670781,-0.171875,0.023438,1.078125,18670783,39,0.495714,18670791,17.981339,35.14,18670953,400,19983,15018,2498,18671000,32.750717,87631.27344,20.282349,102400000,0,1,96,169,1,2779096485
18672019,18671800,-0.179688,-0.007812,1.078125,18671802,39,0.505,18671810,18.059921,35.13,18671972,400,19984,15015,2507,18672019,33.37833,87631.0625,20.394062,15000229,0,1,137,174,1,2779096485
18673038,18672819,-0.179688,-0.007812,1.046875,18672821,39,0.5,18672829,18.062782,35.09,18672991,400,19978,15019,2512,18673038,33.496792,87631.82813,20.401705,14918279,0,1,137,179,1,2779096485
18674057,18673838,-0.195312,-0.023438,1.03125,18673840,39,0.497143,18673848,18.117619,35.04,18674010,400,19987,15024,2457,18674057,33.537121,87632.10156,20.399197,15177397,0,1,137,184,1,2779096485
18675076,18674857,-0.171875,0.007812,1.015625,18674859,39,0.5,18674867,18.118954,34.99,18675029,400,19977,15012,2526,18675076,33.950493,87632.53125,20.385021,738550.3125,0,1,170,189,1,2779096485
18676095,18675876,-0.195312,-0.015625,1.054688,18675878,39,0.493571,18675886,18.106461,35.04,18676048,400,19985,15013,2480,18676095,34.096684,87634.19531,20.338224,755440.8125,0,1,170,194,1,2779096485
18677114,18676895,-0.171875,0.015625,1.046875,18676897,39,0.515,18676905,18.054485,35.1,18677067,400,19987,15016,2480,18677114,34.167259,87633.08594,20.250759,793644.625,0,1,170,199,1,2779096485
18678133,18677914,-0.1875,-0.03125,1.046875,18677916,39,0.510714,18677924,18.035507,35.1,18678086,400,19983,15015,2477,18678133,33.617779,87633.30469,20.057369,102400000,0,1,96,206,1,2779096485
18679152,18678933,-0.164062,0.007812,1.078125,18678935,39,0.492857,18678943,18.041134,35.09,18679105,400,19987,15021,2445,18678133,33.617779,87633.30469,20.057369,102400000,0,1,96,206,1,2779096485
18680171,18679952,-0.1875,-0.007812,1.03125,18679954,39,0.498571,18679962,18.078423,35.06,18680124,400,19984,15014,2450,18680171,32.874226,87632.08594,20.005121,102400000,0,1,96,216,1,2779096485
18681190,18680971,-0.171875,-0.007812,1.070312,18680973,39,0.497143,18680981,18.076134,35.02,18681143,400,19989,15015,2484,18680171,32.874226,87632.08594,20.005121,102400000,0,1,96,216,1,2779096485
18682209,18681990,-0.179688,0,1.0625,18681992,39,0.493571,18682000,18.109322,35,18682162,400,19985,15014,2468,18680171,32.874226,87632.08594,20.005121,102400000,0,1,96,216,1,2779096485
18683228,18683009,-0.171875,0.007812,1.078125,18683011,39,0.497857,18683019,18.173409,34.94,18683181,400,20000,15021,2427,18680171,32.874226,87632.08594,20.005121,102400000,0,1,96,216,1,2779096485
18684247,18684028,-0.179688,0.023438,1.039062,18684030,39,0.501429,18684038,18.205261,34.9,18684200,400,19991,15015,2445,18680171,32.874226,87632.08594,20.005121,102400000,0,1,96,216,1,2779096485
18685266,18685047,-0.171875,0,1,18685049,39,0.491429,18685057,18.196774,34.87,18685219,400,19995,15014,2436,18680171,32.874226,87632.08594,20.005121,102400000,0,1,96,216,1,2779096485
18686285,18686066,-0.179688,0.007812,1.0625,18686068,39,0.493571,18686076,18.259907,34.79,18686238,400,19992,15014,2436,18686285,32.602009,87631.45313,20.451241,102400000,0,1,96,246,1,2779096485
18687304,18687085,-0.171875,0,1.054688,18687087,39,0.49,18687095,18.331242,34.77,18687257,400,19994,15013,2443,18687304,33.247261,87631.66406,20.56954,14989936,0,1,137,251,1,2779096485
18688323,18688104,-0.179688,0,1.054688,18688106,39,0.495714,18688114,18.30225,34.79,18688276,400,20002,15017,2434,18687304,33.247261,87631.66406,20.56954,14989936,0,1,137,251,1,2779096485
18689342,18689123,-0.1875,0.007812,1.085938,18689125,39,0.498571,18689133,18.32428,34.78,18689295,400,19991,15011,2450,18687304,33.247261,87631.66406,20.56954,14989936,0,1,137,251,1,2779096485
18690361,18690142,-0.179688,0.007812,1.085938,18690144,39,0.497143,18690152,18.314457,34.77,18690314,400,19996,15017,2438,18687304,33.247261,87631.66406,20.56954,14989936,0,1,137,251,1,2779096485
18691380,18691161,-0.164062,-0.007812,1.054688,18691163,39,0.495,18691171,18.327999,34.76,18691333,400,19999,15015,2401,18687304,33.247261,87631.66406,20.56954,14989936,0,1,137,251,1,2779096485
18692399,18692180,-0.179688,0.007812,1.078125,18692182,39,0.497857,18692190,18.251419,34.8,18692352,400,19996,15008,2447,18687304,33.247261,87631.66406,20.56954,14989936,0,1,137,251,1,2779096485
18693418,18693199,-0.171875,-0.023438,1.054688,18693201,39,0.492857,18693209,18.294811,34.79,18693371,400,19995,15012,2392,18693418,33.501835,87632.19531,20.197832,102400000,0,1,96,27,1,2779096485
18694437,18694218,-0.1875,0.007812,1.054688,18694220,39,0.495,18694228,18.256855,34.83,18694390,402,19993,15002,2452,18693418,33.501835,87632.19531,20.197832,102400000,0,1,96,27,1,2779096485
18695456,18695237,-0.179688,0,1.03125,18695239,39,0.495714,18695247,18.253231,34.85,18695409,400,19998,15007,2415,18695456,32.780964,87631.69531,20.136585,102400000,0,1,96,37,1,2779096485
18696475,18696256,-0.1875,-0.023438,1.0625,18696258,39,0.495,18696266,18.208981,34.89,18696428,413,19990,15000,2482,18695456,32.780964,87631.69531,20.136585,102400000,0,1,96,37,1,2779096485
18697494,18697275,-0.171875,0,1.0625,18697277,39,0.496429,18697285,18.224525,34.9,18697447,411,19994,14998,2413,18695456,32.780964,87631.69531,20.136585,102400000,0,1,96,37,1,2779096485
18698513,18698294,-0.1875,-0.007812,1.078125,18698296,39,0.493571,18698304,18.216896,34.91,18698466,424,19986,14996,2466,18695456,32.780964,87631.69531,20.136585,102400000,0,1,96,37,1,2779096485
18699532,18699313,-0.179688,0,1.039062,18699315,39,0.496429,18699323,18.236732,34.86,18699485,426,19990,14992,2461,18695456,32.780964,87631.69531,20.136585,102400000,0,1,96,37,1,2779096485
18700551,18700332,-0.179688,0.007812,1.070312,18700334,39,0.495714,18700342,18.281937,34.84,18700504,422,19978,14981,2480,18695456,32.780964,87631.69531,20.136585,102400000,0,1,96,37,1,2779096485
18701570,18701351,-0.179688,-0.007812,1.023438,18701353,39,0.492857,18701361,18.264771,34.84,18701523,428,19988,14993,2510,18695456,32.780964,87631.69531,20.136585,102400000,0,1,96,37,1,2779096485
18702589,18702370,-0.179688,-0.007812,1.054688,18702372,39,0.490714,18702380,18.287277,34.86,18702542,413,19983,14990,2501,18695456,32.780964,87631.69531,20.136585,102400000,0,1,96,37,1,2779096485
18703608,18703389,-0.171875,0.007812,1.039062,18703391,39,0.495714,18703399,18.234062,34.89,18703561,418,19983,14995,2551,18703608,33.458984,87631.04688,20.639585,14219136,0,1,137,82,1,2779096485
18704627,18704408,-0.179688,0,1.023438,18704410,39,0.492143,18704418,18.216515,34.91,18704580,425,19971,14990,2535,18704627,33.89756,87632.96094,20.617004,729864.5625,0,1,170,87,1,2779096485
18705646,18705427,-0.164062,-0.015625,1.023438,18705429,39,0.495,18705437,18.213463,34.9,18705599,424,19963,14987,2540,18705646,34.033669,87632.33594,20.533697,757116.4375,0,1,170,92,1,2779096485
18706665,18706446,-0.164062,0.007812,1.0625,18706448,39,0.496429,18706456,18.189144,34.93,18706618,413,19963,15001,2570,18706665,34.099205,87631.5625,20.445818,789971.0625,0,1,170,97,1,2779096485
18707684,18707465,-0.1875,0.007812,1.09375,18707467,39,0.495714,18707475,18.214703,34.9,18707637,424,19960,14992,2574,18707684,34.144573,87632.52344,20.341318,814476.0625,0,1,170,102,1,2779096485
18708703,18708484,-0.1875,0,1.078125,18708486,39,0.497143,18708494,18.252945,34.9,18708656,414,19960,14997,2567,18707684,34.144573,87632.52344,20.341318,814476.0625,0,1,170,102,1,2779096485
18709722,18709503,-0.164062,0.023438,1.046875,18709505,39,0.510714,18709513,18.267155,34.89,18709675,417,19958,14995,2570,18707684,34.144573,87632.52344,20.341318,814476.0625,0,1,170,102,1,2779096485
18710741,18710522,-0.179688,0,1.085938,18710524,39,0.495714,18710532,18.274212,34.86,18710694,412,19955,14997,2574,18707684,34.144573,87632.52344,20.341318,814476.0625,0,1,170,102,1,2779096485
18711760,18711541,-0.171875,0.015625,1.046875,18711543,39,0.500714,18711551,18.282318,34.85,18711713,406,19961,14998,2556,18707684,34.144573,87632.52344,20.341318,814476.0625,0,1,170,102,1,2779096485
18712779,18712560,-0.179688,0.007812,1.085938,18712562,39,0.496429,18712570,18.272877,34.91,18712732,419,19964,14997,2572,18707684,34.144573,87632.52344,20.341318,814476.0625,0,1,170,102,1,2779096485
18713798,18713579,-0.171875,0.03125,1.0625,18713581,39,0.497857,18713589,18.199825,35.01,18713751,445,19961,14967,2595,18707684,34.144573,87632.52344,20.341318,814476.0625,0,1,170,102,1,2779096485
18714817,18714598,-0.1875,0.023438,1.046875,18714600,39,0.497143,18714608,18.202496,34.98,18714770,478,19954,14947,2616,18707684,34.144573,87632.52344,20.341318,814476.0625,0,1,170,102,1,2779096485
18715836,18715617,-0.179688,0.015625,1.054688,18715619,39,0.500714,18715627,18.190002,35.02,18715789,467,19960,14965,2586,18715836,32.670063,87631.78125,20.573008,102400000,0,1,96,144,1,2779096485
18716855,18716636,-0.179688,-0.023438,1.0625,18716638,39,0.495714,18716646,18.151951,35.04,18716808,444,19957,14976,2616,18716855,33.317833,87630.23438,20.686672,13532108,0,1,137,149,1,2779096485
18717874,18717655,-0.179688,0.015625,1.070312,18717657,39,0.497857,18717665,18.124008,35.07,18717827,436,19950,14984,2604,18717874,33.464027,87630.17969,20.675743,13565721,0,1,137,154,1,2779096485
18718893,18718674,-0.1875,0,1.015625,18718676,39,0.496429,18718684,18.134022,35.03,18718846,435,19950,14988,2618,18718893,33.521999,87632.05469,20.628336,13770960,0,1,137,159,1,2779096485
18719912,18719693,-0.171875,0.007812,1.054688,18719695,39,0.5,18719703,18.138218,35.03,18719865,426,19944,14982,2641,18719912,33.955532,87632.88281,20.615667,715333.5625,0,1,170,164,1,2779096485
18720931,18720712,-0.171875,0.015625,1.0625,18720714,39,0.488571,18720722,18.191051,34.99,18720884,427,19937,14982,2681,18720931,34.076519,87632.58594,20.521126,751697.5625,0,1,170,169,1,2779096485
18721950,18721731,-0.171875,0,1.078125,18721733,39,0.493571,18721741,18.208981,34.97,18721903,428,19946,14986,2662,18721950,34.149616,87634.28906,20.438852,776492.875,0,1,170,174,1,2779096485
18722969,18722750,-0.1875,0,1.070312,18722752,39,0.498571,18722760,18.207645,35,18722922,433,19922,14980,2731,18722969,33.605175,87634.14844,20.245272,102400000,0,1,96,181,1,2779096485
18723988,18723769,-0.171875,0,1.03125,18723771,39,0.497143,18723779,18.213272,34.99,18723941,436,19934,14984,2699,18722969,33.605175,87634.14844,20.245272,102400000,0,1,96,181,1,2779096485
18725007,18724788,-0.179688,-0.015625,1.085938,18724790,39,0.491429,18724798,18.232059,34.92,18724960,432,19936,14988,2706,18725007,32.874226,87632.60938,20.18325,102400000,0,1,96,191,1,2779096485
18726026,18725807,-0.179688,0.023438,1.03125,18725809,39,0.495,18725817,18.35165,34.89,18725979,429,19938,14984,2731,18725007,32.874226,87632.60938,20.18325,102400000,0,1,96,191,1,2779096485
18727045,18726826,-0.195312,0,1.078125,18726828,39,0.495,18726836,18.331337,34.87,18726998,436,19925,14976,2736,18725007,32.874226,87632.60938,20.18325,102400000,0,1,96,191,1,2779096485
18728064,18727845,-0.179688,0.03125,1.070312,18727847,39,0.495,18727855,18.383026,34.9,18728017,430,19933,14980,2711,18725007,32.874226,87632.60938,20.18325,102400000,0,1,96,191,1,2779096485
18729083,18728864,-0.171875,0,1.015625,18728866,39,0.487143,18728874,18.358707,34.9,18729036,432,19925,14983,2727,18725007,32.874226,87632.60938,20.18325,102400000,0,1,96,191,1,2779096485
18730102,18729883,-0.179688,0.007812,1.054688,18729885,39,0.492143,18729893,18.317127,34.88,18730055,436,19919,14982,2764,18725007,32.874226,87632.60938,20.18325,102400000,0,1,96,191,1,2779096485
18731121,18730902,-0.171875,-0.007812,1.070312,18730904,39,0.493571,18730912,18.291187,34.86,18731074,419,19932,14984,2729,18725007,32.874226,87632.60938,20.18325,102400000,0,1,96,191,1,2779096485
18732140,18731921,-0.179688,0.007812,1.078125,18731923,39,0.493571,18731931,18.311691,34.87,18732093,429,19926,14986,2750,18725007,32.874226,87632.60938,20.18325,102400000,0,1,96,191,1,2779096485
18733159,18732940,-0.195312,0,1.054688,18732942,39,0.497857,18732950,18.2724,34.88,18733112,416,19927,14990,2724,18725007,32.874226,87632.60938,20.18325,102400000,0,1,96,191,1,2779096485
18734178,18733959,-0.171875,-0.007812,1.023438,18733961,39,0.49,18733969,18.242741,34.93,18734131,424,19924,14995,2736,18725007,32.874226,87632.60938,20.18325,102400000,0,1,96,191,1,2779096485
18735197,18734978,-0.1875,0,1.054688,18734980,39,0.495,18734988,18.213081,34.96,18735150,412,19930,14997,2651,18725007,32.874226,87632.60938,20.18325,102400000,0,1,96,191,1,2779096485
18736216,18735997,-0.171875,0.023438,1.03125,18735999,39,0.495714,18736007,18.131542,34.98,18736169,422,19931,14992,2718,18725007,32.874226,87632.60938,20.18325,102400000,0,1,96,191,1,2779096485
18737235,18737016,-0.1875,-0.007812,1.085938,18737018,39,0.495714,18737026,18.193626,34.99,18737188,425,19938,14990,2711,18725007,32.874226,87632.60938,20.18325,102400000,0,1,96,191,1,2779096485
18738254,18738035,-0.1875,0.015625,1.09375,18738037,39,0.497143,18738045,18.130684,35,18738207,428,19939,14991,2641,18725007,32.874226,87632.60938,20.18325,102400000,0,1,96,191,1,2779096485
18739273,18739054,-0.164062,0.007812,1.0625,18739056,39,0.491429,18739064,18.09597,34.99,18739226,413,19944,14989,2681,18725007,32.874226,87632.60938,20.18325,102400000,0,1,96,191,1,2779096485
18740292,18740073,-0.179688,0.023438,1.054688,18740075,39,0.497143,18740083,18.051338,35.01,18740245,410,19955,15000,2630,18725007,32.874226,87632.60938,20.18325,102400000,0,1,96,191,1,2779096485
18741311,18741092,-0.1875,0.007812,1.015625,18741094,39,0.496429,18741102,18.058681,34.99,18741264,400,19961,15005,2586,18725007,32.874226,87632.60938,20.18325,102400000,0,1,96,191,1,2779096485
18742330,18742111,-0.171875,-0.007812,1.046875,18742113,39,0.495,18742121,18.176079,34.93,18742283,405,19963,14997,2579,18725007,32.874226,87632.60938,20.18325,102400000,0,1,96,191,1,2779096485
18743349,18743130,-0.171875,0,1.070312,18743132,39,0.493571,18743140,18.233967,34.85,18743302,418,19968,14998,2574,18725007,32.874226,87632.60938,20.18325,102400000,0,1,96,191,1,2779096485
18744368,18744149,-0.171875,0.015625,1.03125,18744151,39,0.496429,18744159,18.278408,34.8,18744321,407,19966,15001,2572,18725007,32.874226,87632.60938,20.18325,102400000,0,1,96,191,1,2779096485
18745387,18745168,-0.1875,0,1.046875,18745170,39,0.495714,18745178,18.290234,34.82,18745340,405,19972,15002,2533,18745387,32.60957,87628.3125,20.538465,102400000,0,1,96,42,1,2779096485
18746406,18746187,-0.179688,0.023438,1.046875,18746189,39,0.493571,18746197,18.272305,34.86,18746359,400,19986,15006,2461,18746406,33.262383,87628.375,20.637005,13507007,0,1,137,47,1,2779096485
18747425,18747206,-0.195312,-0.007812,1.070312,18747208,39,0.492857,18747216,18.215656,34.84,18747378,411,19994,14999,2434,18747425,33.401012,87629.71094,20.635803,12825049,0,1,137,52,1,2779096485
18748444,18748225,-0.171875,0.015625,1.078125,18748227,39,0.487857,18748235,18.213463,34.87,18748397,405,20000,14998,2380,18748444,33.451424,87630.67969,20.608387,12459316,0,1,137,57,1,2779096485
18749463,18749244,-0.179688,0,1.0625,18749246,39,0.490714,18749254,18.19458,34.87,18749416,400,20013,15004,2348,18749463,33.877396,87629.9375,20.590076,698499.3125,0,1,170,62,1,2779096485
18750482,18750263,-0.179688,0.015625,1.039062,18750265,39,0.492143,18750273,18.208408,34.87,18750435,400,20025,15005,2311,18750482,34.018547,87631.07031,20.522472,729864.5625,0,1,170,67,1,2779096485
18751501,18751282,-0.179688,0.023438,1.070312,18751284,39,0.487857,18751292,18.223381,34.87,18751454,400,20031,15007,2256,18751501,34.076519,87631.70313,20.418758,758799.5625,0,1,170,72,1,2779096485
18752520,18752301,-0.164062,0,1.0625,18752303,39,0.495,18752311,18.205357,34.86,18752473,410,20037,15010,2247,18752520,34.116848,87630.71875,20.319075,777377.125,0,1,170,77,1,2779096485
18753539,18753320,-0.179688,-0.015625,1.0625,18753322,39,0.491429,18753330,18.272114,34.8,18753492,403,20044,15005,2187,18752520,34.116848,87630.71875,20.319075,777377.125,0,1,170,77,1,2779096485
18754558,18754339,-0.171875,0.007812,1.0625,18754341,39,0.488571,18754349,18.298054,34.73,18754511,400,20047,15020,2136,18754558,32.768364,87630.44531,20.130697,102400000,0,1,96,89,1,2779096485
18755577,18755358,-0.195312,0.015625,1.03125,18755360,39,0.492857,18755368,18.385696,34.64,18755530,400,20049,15019,2203,18754558,32.768364,87630.44531,20.130697,102400000,0,1,96,89,1,2779096485
18756596,18756377,-0.179688,0,1.070312,18756379,39,0.493571,18756387,18.412018,34.61,18756549,400,20030,15012,2221,18754558,32.768364,87630.44531,20.130697,102400000,0,1,96,89,1,2779096485
18757615,18757396,-0.164062,0.007812,1.0625,18757398,39,0.498571,18757406,18.435955,34.59,18757568,400,20030,15018,2260,18754558,32.768364,87630.44531,20.130697,102400000,0,1,96,89,1,2779096485
18758634,18758415,-0.171875,0.007812,1.078125,18758417,39,0.495,18758425,18.477821,34.54,18758587,400,20034,15018,2249,18754558,32.768364,87630.44531,20.130697,102400000,0,1,96,89,1,2779096485
18759653,18759434,-0.195312,-0.015625,1.015625,18759436,39,0.496429,18759444,18.486404,34.56,18759606,400,20022,15014,2314,18754558,32.768364,87630.44531,20.130697,102400000,0,1,96,89,1,2779096485
18760672,18760453,-0.171875,0.007812,1.078125,18760455,39,0.497143,18760463,18.506145,34.58,18760625,400,20022,15025,2302,18760672,32.501186,87630.85938,20.5774,102400000,0,1,96,119,1,2779096485
18761691,18761472,-0.179688,0.007812,1.046875,18761474,39,0.492857,18761482,18.483067,34.54,18761644,400,20015,15021,2325,18761691,33.14896,87632.51563,20.68589,13633451,0,1,137,124,1,2779096485
18762710,18762491,-0.171875,0,1.054688,18762493,39,0.487857,18762501,18.495846,34.53,18762663,400,20017,15019,2339,18762710,33.257343,87628.71094,20.703196,13599502,0,1,137,129,1,2779096485
18763729,18763510,-0.15625,-0.023438,1.046875,18763512,39,0.490714,18763520,18.509197,34.51,18763682,400,20016,15015,2362,18763729,33.317833,87630.92969,20.661085,13858321,0,1,137,134,1,2779096485
18764748,18764529,-0.171875,-0.007812,1.023438,18764531,39,0.493571,18764539,18.570995,34.51,18764701,400,20005,15017,2410,18763729,33.317833,87630.92969,20.661085,13858321,0,1,137,134,1,2779096485
18765767,18765548,-0.1875,-0.015625,1.0625,18765550,39,0.488571,18765558,18.562126,34.47,18765720,400,20003,15015,2369,18763729,33.317833,87630.92969,20.661085,13858321,0,1,137,134,1,2779096485
18766786,18766567,-0.171875,0,1.007812,18766569,39,0.497857,18766577,18.579483,34.44,18766739,400,20016,15023,2371,18763729,33.317833,87630.92969,20.661085,13858321,0,1,137,134,1,2779096485
18767805,18767586,-0.179688,-0.007812,1.0625,18767588,39,0.495,18767596,18.614388,34.39,18767758,400,20000,15008,2360,18767805,33.350605,87631,20.320795,102400000,0,1,96,156,1,2779096485
18768824,18768605,-0.171875,-0.015625,1.039062,18768607,39,0.490714,18768615,18.629074,34.39,18768777,400,20007,15012,2362,18767805,33.350605,87631,20.320795,102400000,0,1,96,156,1,2779096485
18769843,18769624,-0.1875,0.015625,1.070312,18769626,39,0.490714,18769634,18.610573,34.4,18769796,400,20006,15018,2362,18769843,32.619652,87628.70313,20.253603,102400000,0,1,96,166,1,2779096485
18770862,18770643,-0.164062,0.015625,1.0625,18770645,39,0.491429,18770653,18.667698,34.3,18770815,400,20013,15020,2367,18769843,32.619652,87628.70313,20.253603,102400000,0,1,96,166,1,2779096485
18771881,18771662,-0.1875,0.007812,1.078125,18771664,39,0.490714,18771672,18.67857,34.29,18771834,404,19997,15005,2404,18769843,32.619652,87628.70313,20.253603,102400000,0,1,96,166,1,2779096485
18772900,18772681,-0.15625,-0.007812,1.046875,18772683,39,0.492857,18772691,18.662262,34.31,18772853,400,20006,15019,2385,18769843,32.619652,87628.70313,20.253603,102400000,0,1,96,166,1,2779096485
18773919,18773700,-0.1875,-0.007812,1.070312,18773702,39,0.51,18773710,18.685341,34.2,18773872,400,20017,15026,2344,18769843,32.619652,87628.70313,20.253603,102400000,0,1,96,166,1,2779096485
18774938,18774719,-0.164062,0,1.0625,18774721,39,0.514286,18774729,18.743324,34.25,18774891,400,20012,15027,2316,18769843,32.619652,87628.70313,20.253603,102400000,0,1,96,166,1,2779096485
18775957,18775738,-0.1875,-0.007812,1.078125,18775740,39,0.497143,18775748,18.767166,34.14,18775910,400,20008,15019,2330,18769843,32.619652,87628.70313,20.253603,102400000,0,1,96,166,1,2779096485
18776976,18776757,-0.171875,0.015625,1.015625,18776759,39,0.496429,18776767,18.836498,34.12,18776929,400,20026,15028,2270,18769843,32.619652,87628.70313,20.253603,102400000,0,1,96,166,1,2779096485
18777995,18777776,-0.1875,-0.015625,1.070312,18777778,39,0.496429,18777786,18.844986,34.04,18777948,400,20025,15026,2254,18769843,32.619652,87628.70313,20.253603,102400000,0,1,96,166,1,2779096485
18779014,18778795,-0.179688,0.054688,1.03125,18778797,39,0.491429,18778805,18.864822,33.95,18778967,400,20030,15039,2277,18779014,33.416138,87629.92188,20.780157,744998.1875,0,1,170,216,1,2779096485
18780033,18779814,-0.179688,0,1.03125,18779816,39,0.492143,18779824,18.917179,33.89,18779986,400,20032,15041,2247,18780033,33.514439,87629.58594,20.714884,771229.5,0,1,170,221,1,2779096485
18781052,18780833,-0.164062,0.03125,1.0625,18780835,39,0.498571,18780843,18.92252,33.87,18781005,400,20034,15042,2224,18781052,33.574928,87629.88281,20.647146,803452.3125,0,1,170,226,1,2779096485
18782071,18781852,-0.1875,0,1.023438,18781854,39,0.498571,18781862,18.990898,33.78,18782024,400,20047,15049,2196,18782071,33.554768,87630.54688,20.563948,828814.25,0,1,170,231,1,2779096485
18783090,18782871,-0.1875,0.03125,1.0625,18782873,39,0.491429,18782881,19.037914,33.77,18783043,400,20046,15055,2203,18782071,33.554768,87630.54688,20.563948,828814.25,0,1,170,231,1,2779096485
18784109,18783890,-0.1875,0,1.078125,18783892,39,0.490714,18783900,19.178772,33.66,18784062,400,20053,15042,2214,18782071,33.554768,87630.54688,20.563948,828814.25,0,1,170,231,1,2779096485
18785128,18784909,-0.164062,0.046875,1.085938,18784911,39,0.493571,18784919,19.252586,33.63,18785081,400,20063,15049,2143,18782071,33.554768,87630.54688,20.563948,828814.25,0,1,170,231,1,2779096485
18786147,18785928,-0.171875,-0.03125,1.023438,18785930,39,0.496429,18785938,19.23418,33.67,18786100,400,20065,15056,2110,18782071,33.554768,87630.54688,20.563948,828814.25,0,1,170,231,1,2779096485
18787166,18786947,-0.171875,0.054688,1.039062,18786949,39,0.492143,18786957,19.212341,33.64,18787119,400,20072,15055,2113,18782071,33.554768,87630.54688,20.563948,828814.25,0,1,170,231,1,2779096485
18788185,18787966,-0.171875,0,1.0625,18787968,39,0.487143,18787976,19.243908,33.61,18788138,400,20068,15048,2092,18782071,33.554768,87630.54688,20.563948,828814.25,0,1,170,231,1,2779096485
18789204,18788985,-0.171875,0.015625,1.054688,18788987,39,0.490714,18788995,19.303703,33.62,18789157,400,20068,15048,2108,18782071,33.554768,87630.54688,20.563948,828814.25,0,1,170,231,1,2779096485
18790223,18790004,-0.15625,-0.015625,1.070312,18790006,39,0.492857,18790014,19.396114,33.48,18790176,400,20066,15044,2085,18782071,33.554768,87630.54688,20.563948,828814.25,0,1,170,231,1,2779096485
18791242,18791023,-0.164062,0,1.015625,18791025,39,0.493571,18791033,19.564724,33.32,18791195,400,20074,15053,2055,18791242,32.576805,87631.21094,21.098982,15883665,0,1,138,22,1,2779096485
18792261,18792042,-0.171875,0.007812,1.023438,18792044,39,0.497857,18792052,19.700813,33.29,18792214,400,20066,15043,2127,18792261,32.710392,87631.00781,21.118073,16011727,0,1,138,27,1,2779096485
18793280,18793061,-0.164062,-0.007812,1.046875,18793063,39,0.487857,18793071,19.763565,33.32,18793233,400,20076,15048,2043,18793280,32.75576,87631.11719,21.126209,16310602,0,1,137,32,1,2779096485
18794299,18794080,-0.179688,0.007812,1.0625,18794082,39,0.496429,18794090,19.786549,33.3,18794252,400,20075,15039,2071,18794299,33.143921,87628.99219,21.141703,760914,0,1,170,37,1,2779096485
18795318,18795099,-0.171875,0.023438,1.039062,18795101,39,0.497143,18795109,19.827938,33.2,18795271,400,20084,15053,2053,18795318,33.2523,87627.125,21.071898,787238.125,0,1,170,42,1,2779096485
18796337,18796118,-0.1875,0.007812,1.039062,18796120,39,0.493571,18796128,19.808483,33.09,18796290,400,20088,15054,1995,18796337,33.282551,87629.28906,21.012323,822324.8125,0,1,170,47,1,2779096485
18797356,18797137,-0.179688,0.007812,1.054688,18797139,39,0.498571,18797147,19.82975,33.05,18797309,400,20086,15055,2009,18797356,32.680145,87633.91406,20.84458,102400000,0,1,96,54,1,2779096485
18798375,18798156,-0.171875,0.015625,1.039062,18798158,39,0.496429,18798166,19.81554,33.03,18798328,400,20089,15054,2000,18797356,32.680145,87633.91406,20.84458,102400000,0,1,96,54,1,2779096485
18799394,18799175,-0.179688,-0.007812,1.054688,18799177,39,0.49,18799185,19.940472,32.95,18799347,400,20094,15059,1942,18799394,31.923992,87630.28125,20.795261,102400000,0,1,97,64,1,2779096485
18800413,18800194,-0.179688,-0.007812,1.054688,18800196,39,0.493571,18800204,20.054054,32.81,18800366,400,20107,15057,1937,18799394,31.923992,87630.28125,20.795261,102400000,0,1,97,64,1,2779096485
18801432,18801213,-0.1875,0.015625,1.039062,18801215,39,0.5,18801223,20.137978,32.68,18801385,400,20103,15057,1905,18799394,31.923992,87630.28125,20.795261,102400000,0,1,97,64,1,2779096485
18802451,18802232,-0.179688,0,1.046875,18802234,39,0.496429,18802242,20.184708,32.61,18802404,400,20111,15054,1882,18799394,31.923992,87630.28125,20.795261,102400000,0,1,97,64,1,2779096485
18803470,18803251,-0.179688,0.007812,1.078125,18803253,39,0.51,18803261,20.257092,32.56,18803423,400,20113,15060,1896,18799394,31.923992,87630.28125,20.795261,102400000,0,1,97,64,1,2779096485
18804489,18804270,-0.179688,0,1.0625,18804272,39,0.512143,18804280,20.23077,32.61,18804442,400,20116,15063,1893,18799394,31.923992,87630.28125,20.795261,102400000,0,1,97,64,1,2779096485
18805508,18805289,-0.171875,0.023438,1.078125,18805291,39,0.495,18805299,20.273781,32.6,18805461,400,20113,15055,1861,18799394,31.923992,87630.28125,20.795261,102400000,0,1,97,64,1,2779096485
18806527,18806308,-0.171875,0,1.03125,18806310,39,0.496429,18806318,20.32547,32.55,18806480,400,20123,15056,1877,18799394,31.923992,87630.28125,20.795261,102400000,0,1,97,64,1,2779096485
18807546,18807327,-0.164062,0.015625,1.03125,18807329,39,0.495714,18807337,20.317078,32.56,18807499,400,20126,15068,1822,18799394,31.923992,87630.28125,20.795261,102400000,0,1,97,64,1,2779096485
18808565,18808346,-0.179688,-0.015625,1.039062,18808348,39,0.49,18808356,20.367527,32.48,18808518,400,20128,15067,1806,18799394,31.923992,87630.28125,20.795261,102400000,0,1,97,64,1,2779096485
18809584,18809365,-0.171875,0,1.03125,18809367,39,0.490714,18809375,20.435429,32.39,18809537,400,20129,15067,1773,18799394,31.923992,87630.28125,20.795261,102400000,0,1,97,64,1,2779096485
18810603,18810384,-0.171875,0,1.0625,18810386,39,0.498571,18810394,20.526409,32.33,18810556,400,20142,15073,1780,18799394,31.923992,87630.28125,20.795261,102400000,0,1,97,64,1,2779096485
18811622,18811403,-0.179688,0.015625,1.03125,18811405,39,0.500714,18811413,20.624638,32.23,18811575,400,20141,15071,1741,18799394,31.923992,87630.28125,20.795261,102400000,0,1,97,64,1,2779096485
18812652,18812433,-0.171875,0.007812,1.054688,18812435,39,0.491429,18812443,20.659542,32.22,18812605,400,20137,15065,1739,18799394,31.923992,87630.28125,20.795261,102400000,0,1,97,64,1,2779096485
18813671,18813452,-0.179688,0,1.039062,18813454,39,0.488571,18813462,20.598984,32.21,18813624,400,20140,15064,1796,18799394,31.923992,87630.28125,20.795261,102400000,0,1,97,64,1,2779096485
18814690,18814471,-0.1875,0.007812,1.046875,18814473,39,0.491429,18814481,20.597935,32.25,18814643,400,20141,15053,1776,18799394,31.923992,87630.28125,20.795261,102400000,0,1,97,64,1,2779096485
18815709,18815490,-0.171875,0,1.054688,18815492,39,0.495,18815500,20.568943,32.23,18815662,400,20139,15057,1686,18799394,31.923992,87630.28125,20.795261,102400000,0,1,97,64,1,2779096485
18816728,18816509,-0.1875,0,1.0625,18816511,39,0.497143,18816519,20.627403,32.19,18816681,400,20145,15050,1776,18799394,31.923992,87630.28125,20.795261,102400000,0,1,97,64,1,2779096485
18817747,18817528,-0.171875,0.015625,1.03125,18817530,39,0.495714,18817538,20.632172,32.17,18817700,400,20140,15054,1732,18799394,31.923992,87630.28125,20.795261,102400000,0,1,97,64,1,2779096485
18818766,18818547,-0.1875,-0.015625,1.054688,18818549,39,0.492857,18818557,20.662594,32.09,18818719,400,20138,15053,1753,18799394,31.923992,87630.28125,20.795261,102400000,0,1,97,64,1,2779096485
18819785,18819566,-0.171875,0.007812,1.078125,18819568,39,0.495714,18819576,20.745754,32.07,18819738,400,20151,15056,1764,18799394,31.923992,87630.28125,20.795261,102400000,0,1,97,64,1,2779096485
18820804,18820585,-0.179688,-0.039062,1.023438,18820587,39,0.497143,18820595,20.79649,32.1,18820757,400,20146,15056,1750,18820804,32.019772,87633.17188,21.657335,16671585,0,1,138,176,1,2779096485
18821823,18821604,-0.171875,-0.007812,1.023438,18821606,39,0.495,18821614,20.781136,32.03,18821776,400,20137,15049,1771,18821823,32.150837,87632.80469,21.691893,16864642,0,1,138,181,1,2779096485
18822842,18822623,-0.171875,-0.007812,1.054688,18822625,39,0.495,18822633,20.825481,32.03,18822795,400,20147,15056,1766,18822842,32.181084,87633.92969,21.657925,17183010,0,1,138,186,1,2779096485
18823861,18823642,-0.1875,0.007812,1.03125,18823644,39,0.492143,18823652,20.761776,32.02,18823814,400,20142,15057,1743,18823861,32.584366,87629.66406,21.664595,795958,0,1,170,191,1,2779096485
18824880,18824661,-0.1875,-0.015625,1.078125,18824663,39,0.495,18824671,20.738411,32,18824833,400,20142,15042,1750,18824880,32.70031,87632.03906,21.620951,811089.125,0,1,170,196,1,2779096485
18825899,18825680,-0.179688,0.023438,1.0625,18825682,39,0.501429,18825690,20.818043,31.99,18825852,400,20136,15036,1792,18825899,32.743156,87630.5625,21.515764,842105.25,0,1,170,201,1,2779096485
18826918,18826699,-0.179688,-0.023438,1.054688,18826701,39,0.502143,18826709,20.808601,31.96,18826871,400,20131,15038,1773,18826918,32.780964,87630.46875,21.430874,864499.8125,0,1,170,206,1,2779096485
18827937,18827718,-0.164062,0,1.054688,18827720,39,0.496429,18827728,20.838928,31.94,18827890,400,20131,15038,1776,18826918,32.780964,87630.46875,21.430874,864499.8125,0,1,170,206,1,2779096485
18828956,18828737,-0.179688,-0.007812,1.023438,18828739,39,0.495,18828747,20.865917,31.89,18828909,400,20138,15037,1826,18828956,31.455181,87630.0625,21.2861,102400000,0,1,97,218,1,2779096485
18829975,18829756,-0.171875,0.007812,1.085938,18829758,39,0.495,18829766,20.905399,31.83,18829928,400,20123,15028,1870,18828956,31.455181,87630.0625,21.2861,102400000,0,1,97,218,1,2779096485
18830994,18830775,-0.179688,-0.015625,1.0625,18830777,39,0.502143,18830785,20.981693,31.8,18830947,400,20120,15030,1861,18828956,31.455181,87630.0625,21.2861,102400000,0,1,97,218,1,2779096485
18832013,18831794,-0.179688,0,1.0625,18831796,39,0.500714,18831804,21.018124,31.8,18831966,400,20111,15029,1928,18828956,31.455181,87630.0625,21.2861,102400000,0,1,97,218,1,2779096485
18833032,18832813,-0.179688,0.015625,1.09375,18832815,39,0.490714,18832823,21.024513,31.77,18832985,400,20103,15021,1907,18828956,31.455181,87630.0625,21.2861,102400000,0,1,97,218,1,2779096485
18834051,18833832,-0.171875,0.007812,1.085938,18833834,39,0.492143,18833842,21.071815,31.74,18834004,400,20106,15024,1940,18828956,31.455181,87630.0625,21.2861,102400000,0,1,97,218,1,2779096485
18835070,18834851,-0.179688,0.007812,1.0625,18834853,39,0.517143,18834861,21.13018,31.73,18835023,400,20111,15019,1963,18835070,31.253544,87632.11719,21.74962,102400000,0,1,97,248,1,2779096485
18836089,18835870,-0.179688,0.046875,1.007812,18835872,39,0.522143,18835880,21.051788,31.7,18836042,400,20097,15025,1930,18836089,31.891226,87634.05469,21.880184,17264488,0,1,138,253,1,2779096485
18837108,18836889,-0.179688,0.015625,1.039062,18836891,39,0.502143,18836899,21.038628,31.71,18837061,400,20099,15021,2041,18837108,32.01725,87630.35938,21.893904,17305518,0,1,138,2,1,2779096485
18838127,18837908,-0.179688,-0.007812,1.0625,18837910,39,0.493571,18837918,21.074009,31.74,18838080,400,20090,15021,1993,18838127,32.075222,87633.82813,21.856638,17828074,0,1,138,7,1,2779096485
18839146,18838927,-0.179688,0.015625,1.070312,18838929,39,0.491429,18838937,21.041775,31.72,18839099,400,20089,15023,2034,18838127,32.075222,87633.82813,21.856638,17828074,0,1,138,7,1,2779096485
18840165,18839946,-0.171875,0.023438,1.023438,18839948,39,0.497143,18839956,21.076775,31.71,18840118,400,20082,15019,2009,18838127,32.075222,87633.82813,21.856638,17828074,0,1,138,7,1,2779096485
18841184,18840965,-0.171875,0,1.078125,18840967,39,0.497143,18840975,21.090031,31.68,18841137,400,20080,15025,2046,18838127,32.075222,87633.82813,21.856638,17828074,0,1,138,7,1,2779096485
18842203,18841984,-0.179688,0.015625,1.085938,18841986,39,0.497143,18841994,21.180439,31.68,18842156,400,20072,15013,2060,18842203,32.140755,87632.77344,21.480455,102400000,0,1,97,29,1,2779096485
18843222,18843003,-0.195312,0.015625,1.054688,18843005,39,0.490714,18843013,21.303463,31.69,18843175,400,20077,15018,2085,18842203,32.140755,87632.77344,21.480455,102400000,0,1,97,29,1,2779096485
18844241,18844022,-0.179688,0.007812,1.007812,18844024,39,0.497857,18844032,21.259785,31.66,18844194,400,20072,15016,2080,18844241,31.447622,87627.25,21.423929,102400000,0,1,97,39,1,2779096485
18845260,18845041,-0.171875,0.0625,1.03125,18845043,39,0.495,18845051,21.250916,31.64,18845213,400,20067,15014,2133,18844241,31.447622,87627.25,21.423929,102400000,0,1,97,39,1,2779096485
18846279,18846060,-0.1875,0.007812,1.023438,18846062,39,0.493571,18846070,21.243763,31.64,18846232,400,20057,15011,2076,18844241,31.447622,87627.25,21.423929,102400000,0,1,97,39,1,2779096485
18847298,18847079,-0.1875,0,1.015625,18847081,39,0.498571,18847089,21.238422,31.63,18847251,400,20059,15016,2127,18844241,31.447622,87627.25,21.423929,102400000,0,1,97,39,1,2779096485
18848317,18848098,-0.179688,0,1.023438,18848100,39,0.495714,18848108,21.270657,31.59,18848270,400,20053,15005,2140,18844241,31.447622,87627.25,21.423929,102400000,0,1,97,39,1,2779096485
18849336,18849117,-0.164062,0.007812,1.070312,18849119,39,0.497857,18849127,21.298313,31.6,18849289,403,20054,15010,2193,18844241,31.447622,87627.25,21.423929,102400000,0,1,97,39,1,2779096485
18850355,18850136,-0.171875,0.007812,1.078125,18850138,39,0.491429,18850146,21.310043,31.6,18850308,400,20051,15007,2184,18844241,31.447622,87627.25,21.423929,102400000,0,1,97,39,1,2779096485
18851374,18851155,-0.171875,0.015625,1.0625,18851157,39,0.491429,18851165,21.327496,31.6,18851327,404,20050,15011,2217,18844241,31.447622,87627.25,21.423929,102400000,0,1,97,39,1,2779096485
18852393,18852174,-0.179688,-0.007812,1.046875,18852176,39,0.496429,18852184,21.331978,31.6,18852346,415,20028,14994,2258,18844241,31.447622,87627.25,21.423929,102400000,0,1,97,39,1,2779096485
18853412,18853193,-0.179688,0.007812,1.039062,18853195,39,0.487857,18853203,21.327496,31.59,18853365,420,20036,15003,2256,18844241,31.447622,87627.25,21.423929,102400000,0,1,97,39,1,2779096485
18854431,18854212,-0.1875,0,1.054688,18854214,39,0.495714,18854222,21.322346,31.57,18854384,414,20023,14998,2290,18854431,32.687706,87629.72656,21.888071,816912.625,0,1,170,94,1,2779096485
18855450,18855231,-0.179688,0,1.03125,18855233,39,0.496429,18855241,21.35191,31.55,18855403,422,20025,14997,2297,18855450,32.738117,87630.01563,21.772903,846805.875,0,1,170,99,1,2779096485
18856469,18856250,-0.171875,0.007812,1.0625,18856252,39,0.492857,18856260,21.386433,31.53,18856422,431,20018,14996,2332,18856469,32.775925,87630.46094,21.672411,870563.25,0,1,170,104,1,2779096485
18857488,18857269,-0.179688,0.023438,1.054688,18857271,39,0.492857,18857279,21.353436,31.52,18857441,422,20012,14997,2316,18856469,32.775925,87630.46094,21.672411,870563.25,0,1,170,104,1,2779096485
18858507,18858288,-0.1875,0,1.039062,18858290,39,0.493571,18858298,21.380043,31.5,18858460,415,20010,14990,2337,18856469,32.775925,87630.46094,21.672411,870563.25,0,1,170,104,1,2779096485
18859526,18859307,-0.171875,0.015625,1.023438,18859309,39,0.496429,18859317,21.418571,31.5,18859479,420,20017,14998,2327,18856469,32.775925,87630.46094,21.672411,870563.25,0,1,170,104,1,2779096485
18860545,18860326,-0.1875,0,1.078125,18860328,39,0.498571,18860336,21.418095,31.52,18860498,415,20003,14994,2327,18856469,32.775925,87630.46094,21.672411,870563.25,0,1,170,104,1,2779096485
18861564,18861345,-0.1875,0.007812,1.101562,18861347,39,0.497857,18861355,21.433163,31.51,18861517,419,20005,14997,2348,18856469,32.775925,87630.46094,21.672411,870563.25,0,1,170,104,1,2779096485
18862583,18862364,-0.179688,0.015625,1.070312,18862366,39,0.497857,18862374,21.42086,31.51,18862536,423,19993,14986,2392,18856469,32.775925,87630.46094,21.672411,870563.25,0,1,170,104,1,2779096485
18863602,18863383,-0.179688,0.007812,1.007812,18863385,39,0.492143,18863393,21.455097,31.52,18863555,431,19993,14990,2434,18856469,32.775925,87630.46094,21.672411,870563.25,0,1,170,104,1,2779096485
18864621,18864402,-0.179688,0,1.054688,18864404,39,0.495,18864412,21.515942,31.53,18864574,424,19988,14991,2454,18864621,31.334202,87629.54688,21.919575,102400000,0,1,97,146,1,2779096485
18865640,18865421,-0.179688,-0.007812,1.125,18865423,39,0.490714,18865431,21.477795,31.55,18865593,421,19986,14989,2441,18865640,31.997089,87629.07813,22.026524,16982638,0,1,138,151,1,2779096485
18866659,18866440,-0.171875,0,1.015625,18866442,39,0.497143,18866450,21.461678,31.55,18866612,411,19990,14994,2415,18866659,32.143276,87631.72656,22.041687,17062224,0,1,138,156,1,2779096485
18867678,18867459,-0.171875,0.007812,1.039062,18867461,39,0.492143,18867469,21.414852,31.59,18867631,408,19999,15003,2415,18867678,32.21637,87633.3125,22.010584,17415892,0,1,138,161,1,2779096485
18868697,18868478,-0.171875,0.007812,1.078125,18868480,39,0.486429,18868488,21.366596,31.63,18868650,402,20000,15007,2424,18868697,32.639816,87629.26563,21.977671,794568.375,0,1,170,166,1,2779096485
18869716,18869497,-0.171875,-0.015625,1.046875,18869499,39,0.496429,18869507,21.341324,31.67,18869669,409,19999,15005,2408,18869716,32.775925,87629.40625,21.909578,816424.1875,0,1,170,171,1,2779096485
18870735,18870516,-0.1875,-0.023438,1.046875,18870518,39,0.493571,18870526,21.379757,31.67,18870688,413,19995,15000,2408,18870735,32.861622,87631.69531,21.791622,834896.0625,0,1,170,176,1,2779096485
18871754,18871535,-0.164062,0.023438,1.03125,18871537,39,0.495,18871545,21.35191,31.68,18871707,411,20000,15007,2399,18871754,32.317192,87635.83594,21.595095,102400000,0,1,96,183,1,2779096485
18872773,18872554,-0.1875,-0.007812,1.054688,18872556,39,0.495714,18872564,21.300507,31.72,18872726,412,19992,15005,2468,18871754,32.317192,87635.83594,21.595095,102400000,0,1,96,183,1,2779096485
18873792,18873573,-0.171875,0.015625,1.054688,18873575,39,0.486429,18873583,21.216393,31.76,18873745,403,20009,15010,2404,18873792,31.613974,87629.625,21.506823,102400000,0,1,97,193,1,2779096485
18874811,18874592,-0.1875,-0.015625,1.078125,18874594,39,0.49,18874602,21.233273,31.78,18874764,413,19984,14999,2427,18873792,31.613974,87629.625,21.506823,102400000,0,1,97,193,1,2779096485
18875830,18875611,-0.171875,0,1.078125,18875613,39,0.497857,18875621,21.142864,31.81,18875783,415,19985,14992,2464,18873792,31.613974,87629.625,21.506823,102400000,0,1,97,193,1,2779096485
18876849,18876630,-0.1875,-0.007812,1.0625,18876632,39,0.492857,18876640,21.150494,31.84,18876802,418,19985,14995,2487,18873792,31.613974,87629.625,21.506823,102400000,0,1,97,193,1,2779096485
18877868,18877649,-0.171875,0,1.070312,18877651,39,0.491429,18877659,21.085262,31.86,18877821,412,19989,14992,2408,18873792,31.613974,87629.625,21.506823,102400000,0,1,97,193,1,2779096485
18878887,18878668,-0.1875,-0.007812,1.0625,18878670,39,0.492143,18878678,21.07048,31.89,18878840,417,19991,14997,2459,18873792,31.613974,87629.625,21.506823,102400000,0,1,97,193,1,2779096485
18879906,18879687,-0.164062,-0.03125,1,18879689,39,0.491429,18879697,21.038151,31.93,18879859,421,19984,14991,2457,18873792,31.613974,87629.625,21.506823,102400000,0,1,97,193,1,2779096485
18880925,18880706,-0.1875,-0.007812,1.0625,18880708,39,0.493571,18880716,20.997238,31.92,18880878,424,19973,14991,2528,18873792,31.613974,87629.625,21.506823,102400000,0,1,97,193,1,2779096485
18881944,18881725,-0.179688,0.023438,1.070312,18881727,39,0.497143,18881735,21.050167,31.95,18881897,433,19976,14988,2535,18873792,31.613974,87629.625,21.506823,102400000,0,1,97,193,1,2779096485
18882963,18882744,-0.1875,-0.007812,1.0625,18882746,39,0.490714,18882754,21.062756,31.94,18882916,443,19964,14982,2549,18873792,31.613974,87629.625,21.506823,102400000,0,1,97,193,1,2779096485
18883982,18883763,-0.171875,0.03125,1.070312,18883765,39,0.492143,18883773,21.03281,32,18883935,438,19962,14975,2558,18873792,31.613974,87629.625,21.506823,102400000,0,1,97,193,1,2779096485
18885001,18884782,-0.179688,-0.015625,1.046875,18884784,39,0.497143,18884792,21.001434,32.01,18884954,440,19964,14983,2591,18873792,31.613974,87629.625,21.506823,102400000,0,1,97,193,1,2779096485
18886020,18885801,-0.179688,0.007812,1.078125,18885803,39,0.495714,18885811,21.021557,32.04,18885973,422,19971,14988,2558,18873792,31.613974,87629.625,21.506823,102400000,0,1,97,193,1,2779096485
18887039,18886820,-0.1875,-0.007812,1.023438,18886822,39,0.492143,18886830,21.005535,32.05,18886992,425,19960,14989,2574,18887039,32.41045,87632.92188,21.508821,102400000,0,1,96,4,1,2779096485
18888058,18887839,-0.179688,0.023438,1.0625,18887841,39,0.497857,18887849,21.015263,32.06,18888011,421,19971,14994,2531,18887039,32.41045,87632.92188,21.508821,102400000,0,1,96,4,1,2779096485
18889077,18888858,-0.1875,-0.007812,1.070312,18888860,39,0.492857,18888868,20.947552,32.04,18889030,416,19972,14997,2581,18887039,32.41045,87632.92188,21.508821,102400000,0,1,96,4,1,2779096485
18890096,18889877,-0.1875,0,1.039062,18889879,39,0.495,18889887,21.072865,32.04,18890049,416,19962,14995,2528,18887039,32.41045,87632.92188,21.508821,102400000,0,1,96,4,1,2779096485
18891115,18890896,-0.179688,0.007812,1.085938,18890898,39,0.497143,18890906,21.143913,32.04,18891068,415,19959,14996,2524,18887039,32.41045,87632.92188,21.508821,102400000,0,1,96,4,1,2779096485
18892134,18891915,-0.179688,0.007812,1.039062,18891917,39,0.496429,18891925,21.150017,32.04,18892087,418,19965,14998,2558,18887039,32.41045,87632.92188,21.508821,102400000,0,1,96,4,1,2779096485
18893153,18892934,-0.1875,-0.007812,1.054688,18892936,39,0.490714,18892944,21.176147,32.08,18893106,421,19966,14991,2551,18887039,32.41045,87632.92188,21.508821,102400000,0,1,96,4,1,2779096485
18894172,18893953,-0.171875,0.046875,1.023438,18893955,39,0.495714,18893963,21.21067,32.08,18894125,421,19974,15000,2524,18887039,32.41045,87632.92188,21.508821,102400000,0,1,96,4,1,2779096485
18895191,18894972,-0.1875,-0.007812,1.046875,18894974,39,0.496429,18894982,21.210003,32.11,18895144,420,19976,14994,2526,18895191,32.163441,87631.08594,22.027594,16408613,0,1,138,49,1,2779096485
18896210,18895991,-0.171875,-0.007812,1.0625,18895993,39,0.496429,18896001,21.177197,32.12,18896163,417,19974,14987,2533,18896210,32.302071,87631.77344,22.052576,16225798,0,1,138,54,1,2779096485
18897229,18897010,-0.179688,0.007812,1.054688,18897012,39,0.497857,18897020,21.216679,32.09,18897182,424,19969,14995,2526,18897229,32.347435,87632.23438,22.024721,16334995,0,1,138,59,1,2779096485
18898248,18898029,-0.179688,0,1.039062,18898031,39,0.488571,18898039,21.090508,32.06,18898201,413,19984,15007,2498,18898248,32.768364,87629.21875,22.022638,783174,0,1,170,64,1,2779096485
18899267,18899048,-0.179688,-0.007812,1.046875,18899050,39,0.495,18899058,20.981979,32.05,18899220,410,19975,14999,2505,18899267,32.896908,87630.55469,21.943674,804873.25,0,1,170,69,1,2779096485
18900286,18900067,-0.164062,0.007812,1.007812,18900069,39,0.495714,18900077,20.949554,32.04,18900239,405,19983,15007,2484,18900286,32.959923,87630.69531,21.824118,825806.4375,0,1,170,74,1,2779096485
18901305,18901086,-0.171875,0.007812,1.078125,18901088,39,0.49,18901096,20.936394,32.05,18901258,402,19990,15006,2489,18901305,33.01033,87630.8125,21.708935,860685,0,1,170,79,1,2779096485
18902324,18902105,-0.179688,0,1.070312,18902107,39,0.487143,18902115,20.91341,32.04,18902277,403,19981,14999,2434,18901305,33.01033,87630.8125,21.708935,860685,0,1,170,79,1,2779096485
18903343,18903124,-0.171875,0.03125,1.0625,18903126,39,0.493571,18903134,20.903015,32.03,18903296,404,19976,15005,2452,18903343,31.697149,87630.55469,21.461065,102400000,0,1,97,91,1,2779096485
18904362,18904143,-0.195312,0.007812,1.09375,18904145,39,0.498571,18904153,20.946693,32.04,18904315,400,19990,15006,2464,18903343,31.697149,87630.55469,21.461065,102400000,0,1,97,91,1,2779096485
18905381,18905162,-0.171875,0,1.023438,18905164,39,0.495,18905172,20.899677,32.08,18905334,400,19988,15014,2420,18903343,31.697149,87630.55469,21.461065,102400000,0,1,97,91,1,2779096485
18906400,18906181,-0.1875,0,1.0625,18906183,39,0.497857,18906191,20.901203,32.05,18906353,400,19998,15017,2408,18903343,31.697149,87630.55469,21.461065,102400000,0,1,97,91,1,2779096485
18907419,18907200,-0.179688,0,1.078125,18907202,39,0.492143,18907210,20.892906,32.02,18907372,400,19999,15016,2406,18903343,31.697149,87630.55469,21.461065,102400000,0,1,97,91,1,2779096485
18908438,18908219,-0.179688,-0.015625,1.0625,18908221,39,0.500714,18908229,20.932961,32.05,18908391,400,19983,15010,2422,18903343,31.697149,87630.55469,21.461065,102400000,0,1,97,91,1,2779096485
18909457,18909238,-0.171875,-0.015625,1.0625,18909240,39,0.496429,18909248,20.984268,32.08,18909410,400,20000,15016,2390,18909457,31.482906,87628.57031,21.806206,102400000,0,1,97,121,1,2779096485
18910476,18910257,-0.195312,0.023438,1.070312,18910259,39,0.492143,18910267,21.039867,32.1,18910429,400,19999,15011,2406,18910476,32.135715,87631.00781,21.922583,16722633,0,1,138,126,1,2779096485
18911495,18911276,-0.179688,0,1.085938,18911278,39,0.493571,18911286,20.997524,32.11,18911448,400,20007,15011,2413,18911495,32.274342,87632.23438,21.921726,16671585,0,1,138,131,1,2779096485
18912514,18912295,-0.195312,0,1.0625,18912297,39,0.497857,18912305,20.992947,32.15,18912467,406,20001,15007,2383,18912514,32.334831,87631.67188,21.900082,16903792,0,1,138,136,1,2779096485
18913533,18913314,-0.179688,0,1.046875,18913316,39,0.497857,18913324,21.015739,32.15,18913486,405,19996,15008,2422,18912514,32.334831,87631.67188,21.900082,16903792,0,1,138,136,1,2779096485
18914552,18914333,-0.179688,0.015625,1.085938,18914335,39,0.495714,18914343,20.897007,32.16,18914505,400,20002,15010,2392,18912514,32.334831,87631.67188,21.900082,16903792,0,1,138,136,1,2779096485
18915571,18915352,-0.171875,0.023438,1,18915354,39,0.5,18915362,20.834351,32.14,18915524,400,19997,15012,2406,18912514,32.334831,87631.67188,21.900082,16903792,0,1,138,136,1,2779096485
18916590,18916371,-0.1875,-0.007812,1.070312,18916373,39,0.496429,18916381,20.822334,32.09,18916543,404,20007,15013,2380,18916590,32.405407,87632.38281,21.518764,102400000,0,1,96,158,1,2779096485
18917609,18917390,-0.171875,-0.007812,1.015625,18917392,39,0.495,18917400,20.819187,32.12,18917562,400,20011,15013,2397,18916590,32.405407,87632.38281,21.518764,102400000,0,1,96,158,1,2779096485
18918628,18918409,-0.179688,-0.023438,1.039062,18918411,39,0.486429,18918419,20.877743,32.06,18918581,407,20006,15013,2438,18918628,31.69463,87631.07031,21.424992,102400000,0,1,97,168,1,2779096485
18919647,18919428,-0.1875,0.023438,1.0625,18919430,39,0.490714,18919438,20.924187,32.12,18919600,400,20002,15010,2353,18918628,31.69463,87631.07031,21.424992,102400000,0,1,97,168,1,2779096485
18920666,18920447,-0.1875,0,1.054688,18920449,39,0.492143,18920457,20.921612,32.13,18920619,400,20009,15017,2374,18918628,31.69463,87631.07031,21.424992,102400000,0,1,97,168,1,2779096485
18921685,18921466,-0.171875,0,1.085938,18921468,39,0.49,18921476,20.857525,32.15,18921638,400,20010,15017,2390,18918628,31.69463,87631.07031,21.424992,102400000,0,1,97,168,1,2779096485
18922704,18922485,-0.1875,0.015625,1.078125,18922487,39,0.491429,18922495,20.883465,32.14,18922657,400,20003,15012,2376,18918628,31.69463,87631.07031,21.424992,102400000,0,1,97,168,1,2779096485
18923723,18923504,-0.179688,0.007812,1.09375,18923506,39,0.492143,18923514,20.878029,32.13,18923676,400,20006,15017,2337,18918628,31.69463,87631.07031,21.424992,102400000,0,1,97,168,1,2779096485
18924742,18924523,-0.179688,0.046875,1.085938,18924525,39,0.496429,18924533,20.891285,32.07,18924695,400,20018,15020,2311,18918628,31.69463,87631.07031,21.424992,102400000,0,1,97,168,1,2779096485
18925761,18925542,-0.179688,0,1.039062,18925544,39,0.491429,18925552,20.941257,32.06,18925714,400,20009,15018,2350,18918628,31.69463,87631.07031,21.424992,102400000,0,1,97,168,1,2779096485
18926780,18926561,-0.1875,0.015625,1.03125,18926563,39,0.503571,18926571,20.895004,32.06,18926733,400,20022,15021,2302,18918628,31.69463,87631.07031,21.424992,102400000,0,1,97,168,1,2779096485
18927799,18927580,-0.179688,0.046875,1.03125,18927582,39,0.507857,18927590,20.938969,32.03,18927752,400,20021,15020,2284,18918628,31.69463,87631.07031,21.424992,102400000,0,1,97,168,1,2779096485
18928818,18928599,-0.179688,0.015625,1.054688,18928601,39,0.488571,18928609,20.928383,32,18928771,400,20021,15024,2286,18928818,32.854057,87629.05469,21.796263,811571.25,0,1,170,223,1,2779096485
18929837,18929618,-0.179688,0.007812,1.054688,18929620,39,0.492857,18929628,20.953751,31.96,18929790,400,20022,15023,2307,18929837,32.909512,87630.58594,21.686628,835918.375,0,1,170,228,1,2779096485
18930856,18930637,-0.179688,-0.015625,1.085938,18930639,39,0.490714,18930647,20.95871,31.93,18930809,400,20025,15022,2277,18930856,32.952358,87630.32813,21.596798,860142.8125,0,1,170,233,1,2779096485
18931875,18931656,-0.179688,0.007812,1.054688,18931658,39,0.487857,18931666,20.970058,31.95,18931828,400,20018,15018,2304,18930856,32.952358,87630.32813,21.596798,860142.8125,0,1,170,233,1,2779096485
18932894,18932675,-0.1875,0.015625,1.078125,18932677,39,0.487143,18932685,20.986271,31.95,18932847,400,20027,15024,2272,18930856,32.952358,87630.32813,21.596798,860142.8125,0,1,170,233,1,2779096485
18933913,18933694,-0.171875,0.015625,1.054688,18933696,39,0.495714,18933704,21.045303,31.96,18933866,400,20020,15017,2337,18930856,32.952358,87630.32813,21.596798,860142.8125,0,1,170,233,1,2779096485
18934932,18934713,-0.171875,-0.023438,1.015625,18934715,39,0.512857,18934723,21.043873,31.96,18934885,400,20024,15008,2314,18930856,32.952358,87630.32813,21.596798,860142.8125,0,1,170,233,1,2779096485
18935951,18935732,-0.195312,0.023438,1.015625,18935734,39,0.490714,18935742,21.105862,32.03,18935904,400,20029,15018,2297,18930856,32.952358,87630.32813,21.596798,860142.8125,0,1,170,233,1,2779096485
18936970,18936751,-0.195312,0.007812,1.070312,18936753,39,0.482143,18936761,21.151733,32.03,18936923,405,20014,15008,2344,18930856,32.952358,87630.32813,21.596798,860142.8125,0,1,170,233,1,2779096485
18937989,18937770,-0.171875,0.007812,1.046875,18937772,39,0.470714,18937780,21.4468,32,18937942,400,20020,15012,2344,18930856,32.952358,87630.32813,21.596798,860142.8125,0,1,170,233,1,2779096485
18939008,18938789,-0.179688,0.023438,1.023438,18938791,39,0.452143,18938799,21.219921,31.87,18938961,402,20008,15004,2297,18939008,31.467785,87628.35938,21.882328,102400000,0,1,97,19,1,2779096485
18940027,18939808,-0.1875,0.015625,1.078125,18939810,39,0.5,18939818,21.217155,31.92,18939980,406,20013,15015,2311,18940027,32.113029,87630.94531,21.9932,16408613,0,1,138,24,1,2779096485
18941046,18940827,-0.171875,-0.015625,1.054688,18940829,39,0.486429,18940837,21.278954,31.93,18940999,405,20020,15015,2362,18941046,32.236534,87632.65625,21.996492,16633503,0,1,138,29,1,2779096485
18942065,18941846,-0.171875,0.023438,1.015625,18941848,39,0.480714,18941856,21.263218,31.88,18942018,400,20017,15015,2314,18942065,32.291985,87631.92969,21.984812,17115696,0,1,138,34,1,2779096485
18943084,18942865,-0.195312,0.023438,1.046875,18942867,39,0.491429,18942875,21.273613,31.89,18943037,400,20018,15007,2309,18943084,32.702827,87630.28906,21.97167,790886.25,0,1,170,39,1,2779096485
18944103,18943884,-0.15625,0.015625,1.023438,18943886,39,0.486429,18943894,21.523476,31.92,18944056,400,20025,15015,2300,18944103,32.85154,87630.97656,21.90443,809166.3125,0,1,170,44,1,2779096485
18945122,18944903,-0.1875,-0.015625,1.054688,18944905,39,0.488571,18944913,21.370125,31.75,18945075,400,20019,15014,2320,18945122,32.90699,87630.04688,21.815346,834896.0625,0,1,170,49,1,2779096485
18946141,18945922,-0.171875,0.039062,1.046875,18945924,39,0.485,18945932,21.28582,31.72,18946094,400,20019,15012,2316,18946141,32.349957,87633.47656,21.623022,102400000,0,1,96,56,1,2779096485
18947160,18946941,-0.195312,0,1.046875,18946943,39,0.476429,18946951,21.256447,31.71,18947113,400,20024,15015,2295,18946141,32.349957,87633.47656,21.623022,102400000,0,1,96,56,1,2779096485
18948179,18947960,-0.179688,0.039062,1.070312,18947962,39,0.487857,18947970,21.264935,31.69,18948132,400,20027,15022,2318,18948179,31.639179,87631.26563,21.508509,102400000,0,1,97,66,1,2779096485
18949198,18948979,-0.195312,0,1.015625,18948981,39,0.497143,18948989,21.24958,31.67,18949151,400,20031,15023,2286,18948179,31.639179,87631.26563,21.508509,102400000,0,1,97,66,1,2779096485
18950217,18949998,-0.164062,0.039062,1.046875,18950000,39,0.497857,18950008,21.267033,31.67,18950170,400,20020,15016,2279,18948179,31.639179,87631.26563,21.508509,102400000,0,1,97,66,1,2779096485
18951236,18951017,-0.179688,0.007812,1.070312,18951019,39,0.485,18951027,21.310616,31.67,18951189,400,20020,15022,2295,18948179,31.639179,87631.26563,21.508509,102400000,0,1,97,66,1,2779096485
18952255,18952036,-0.179688,0.039062,1.039062,18952038,39,0.482143,18952046,21.282387,31.73,18952208,400,20036,15028,2284,18948179,31.639179,87631.26563,21.508509,102400000,0,1,97,66,1,2779096485
18953274,18953055,-0.171875,0.023438,1.070312,18953057,39,0.487143,18953065,21.218014,31.75,18953227,400,20023,15018,2267,18948179,31.639179,87631.26563,21.508509,102400000,0,1,97,66,1,2779096485
18954293,18954074,-0.171875,0.015625,1.046875,18954076,39,0.481429,18954084,21.229458,31.72,18954246,400,20026,15027,2242,18954293,31.417377,87628.21094,21.873766,102400000,0,1,97,96,1,2779096485
18955312,18955093,-0.164062,0.015625,1.054688,18955095,39,0.483571,18955103,21.233749,31.68,18955265,400,20039,15025,2256,18954293,31.417377,87628.21094,21.873766,102400000,0,1,97,96,1,2779096485
18956331,18956112,-0.171875,0.03125,1,18956114,39,0.507143,18956122,21.252346,31.65,18956284,400,20025,15018,2212,18954293,31.417377,87628.21094,21.873766,102400000,0,1,97,96,1,2779096485
18957350,18957131,-0.171875,0,1.070312,18957133,39,0.505,18957141,21.332264,31.64,18957303,400,20041,15033,2244,18954293,31.417377,87628.21094,21.873766,102400000,0,1,97,96,1,2779096485
18958369,18958150,-0.1875,0.023438,1.054688,18958152,39,0.498571,18958160,21.331024,31.66,18958322,400,20033,15019,2242,18954293,31.417377,87628.21094,21.873766,102400000,0,1,97,96,1,2779096485
18959388,18959169,-0.1875,0.007812,1.03125,18959171,39,0.507857,18959179,21.349239,31.65,18959341,400,20037,15020,2219,18954293,31.417377,87628.21094,21.873766,102400000,0,1,97,96,1,2779096485
18960407,18960188,-0.171875,0.03125,1.046875,18960190,39,0.505714,18960198,21.358585,31.67,18960360,400,20047,15028,2184,18954293,31.417377,87628.21094,21.873766,102400000,0,1,97,96,1,2779096485
18961426,18961207,-0.164062,0.046875,1.054688,18961209,39,0.502857,18961217,21.379375,31.61,18961379,400,20040,15031,2219,18961426,32.307106,87632.66406,21.537861,102400000,0,1,97,133,1,2779096485
18962445,18962226,-0.195312,0.03125,1.0625,18962228,39,0.485714,18962236,21.424007,31.56,18962398,400,20055,15030,2180,18961426,32.307106,87632.66406,21.537861,102400000,0,1,97,133,1,2779096485
18963464,18963245,-0.179688,0,1.09375,18963247,39,0.483571,18963255,21.486568,31.54,18963417,400,20045,15028,2168,18961426,32.307106,87632.66406,21.537861,102400000,0,1,97,133,1,2779096485
18964483,18964264,-0.1875,0.03125,1.070312,18964266,39,0.487857,18964274,21.51556,31.5,18964436,400,20055,15035,2207,18961426,32.307106,87632.66406,21.537861,102400000,0,1,97,133,1,2779096485
18965502,18965283,-0.203125,0.039062,1.046875,18965285,39,0.49,18965293,21.48695,31.48,18965455,400,20051,15021,2157,18961426,32.307106,87632.66406,21.537861,102400000,0,1,97,133,1,2779096485
18966521,18966302,-0.171875,0,1.03125,18966304,39,0.487143,18966312,21.535301,31.45,18966474,400,20048,15023,2180,18961426,32.307106,87632.66406,21.537861,102400000,0,1,97,133,1,2779096485
18967540,18967321,-0.1875,0.007812,1.070312,18967323,39,0.482857,18967331,21.582317,31.43,18967493,400,20058,15032,2187,18961426,32.307106,87632.66406,21.537861,102400000,0,1,97,133,1,2779096485
18968559,18968340,-0.179688,-0.015625,1.085938,18968342,39,0.480714,18968350,21.610069,31.44,18968512,400,20047,15028,2180,18961426,32.307106,87632.66406,21.537861,102400000,0,1,97,133,1,2779096485
18969578,18969359,-0.171875,0.023438,0.992188,18969361,39,0.493571,18969369,21.609116,31.43,18969531,400,20057,15022,2140,18961426,32.307106,87632.66406,21.537861,102400000,0,1,97,133,1,2779096485
18970597,18970378,-0.1875,0.015625,1.039062,18970380,39,0.487857,18970388,21.595955,31.41,18970550,400,20057,15030,2159,18970597,32.095387,87630.90625,22.069359,16929992,0,1,138,183,1,2779096485
18971616,18971397,-0.179688,0.023438,1.046875,18971399,39,0.487143,18971407,21.597481,31.44,18971569,400,20054,15021,2175,18971616,32.140755,87632.42188,22.036354,17210084,0,1,138,188,1,2779096485
18972635,18972416,-0.1875,-0.007812,1.0625,18972418,39,0.487143,18972426,21.625996,31.48,18972588,400,20048,15025,2196,18972635,32.564201,87627.34375,22.02927,793183.5625,0,1,170,193,1,2779096485
18973654,18973435,-0.179688,0.023438,1.085938,18973437,39,0.487857,18973445,21.619034,31.49,18973607,400,20050,15028,2150,18973654,32.715431,87628.39063,21.977697,822324.8125,0,1,170,198,1,2779096485
18974673,18974454,-0.179688,0.023438,1.046875,18974456,39,0.498571,18974464,21.571541,31.53,18974626,400,20043,15017,2193,18974673,32.773403,87627.125,21.862968,841586.1875,0,1,170,203,1,2779096485
18975692,18975473,-0.179688,-0.015625,1.0625,18975475,39,0.486429,18975483,21.550751,31.53,18975645,400,20041,15016,2177,18975692,32.828854,87630.92188,21.784235,860685,0,1,170,208,1,2779096485
18976711,18976492,-0.171875,0.007812,1.023438,18976494,39,0.481429,18976502,21.561813,31.57,18976664,400,20048,15018,2154,18975692,32.828854,87630.92188,21.784235,860685,0,1,170,208,1,2779096485
18977730,18977511,-0.179688,0.015625,1.023438,18977513,39,0.496429,18977521,21.547699,31.62,18977683,400,20044,15016,2205,18977730,31.545919,87627.86719,21.620325,102400000,0,1,97,220,1,2779096485
18978749,18978530,-0.148438,0.039062,1.085938,18978532,39,0.477143,18978540,21.552944,31.61,18978702,400,20049,15014,2166,18977730,31.545919,87627.86719,21.620325,102400000,0,1,97,220,1,2779096485
18979768,18979549,-0.179688,0.007812,1.023438,18979551,39,0.481429,18979559,21.501541,31.65,18979721,400,20054,15024,2177,18977730,31.545919,87627.86719,21.620325,102400000,0,1,97,220,1,2779096485
18980787,18980568,-0.195312,0.039062,1.070312,18980570,39,0.477857,18980578,21.49601,31.65,18980740,400,20046,15008,2205,18977730,31.545919,87627.86719,21.620325,102400000,0,1,97,220,1,2779096485
18981806,18981587,-0.171875,0.03125,1.117188,18981589,39,0.477857,18981597,21.514511,31.64,18981759,400,20046,15018,2191,18977730,31.545919,87627.86719,21.620325,102400000,0,1,97,220,1,2779096485
18982825,18982606,-0.179688,0.023438,1.03125,18982608,39,0.480714,18982616,21.533966,31.65,18982778,400,20039,15014,2198,18977730,31.545919,87627.86719,21.620325,102400000,0,1,97,220,1,2779096485
18983844,18983625,-0.148438,0.007812,1.078125,18983627,39,0.481429,18983635,21.552086,31.69,18983797,400,20035,15010,2214,18983844,31.384609,87627.9375,22.072289,102400000,0,1,97,250,1,2779096485
18984863,18984644,-0.164062,0.070312,1.085938,18984646,39,0.475714,18984654,21.544552,31.68,18984816,404,20042,15009,2212,18984863,32.039936,87627.96094,22.194578,16482897,0,1,138,255,1,2779096485
18985882,18985663,-0.242188,0.023438,1.0625,18985665,39,0.460714,18985673,21.536541,31.66,18985835,400,20044,15015,2247,18985882,32.178566,87631.8125,22.193802,16608211,0,1,138,4,1,2779096485
18986901,18986682,-0.171875,0.023438,1.039062,18986684,39,0.465714,18986692,21.566677,31.68,18986854,409,20035,15008,2244,18986901,32.236534,87631.25781,22.182302,17009084,0,1,138,9,1,2779096485
18987920,18987701,-0.203125,0.023438,1.09375,18987703,39,0.488571,18987711,21.54789,31.72,18987873,413,20033,15005,2295,18987920,32.667542,87627.58594,22.165537,791344.6875,0,1,170,14,1,2779096485
18988939,18988720,-0.164062,-0.007812,1.054688,18988722,39,0.493571,18988730,21.498108,31.77,18988892,406,20038,15012,2256,18987920,32.667542,87627.58594,22.165537,791344.6875,0,1,170,14,1,2779096485
18989958,18989739,-0.171875,0.023438,1.070312,18989741,39,0.506429,18989749,21.498966,31.8,18989911,412,20026,15004,2214,18987920,32.667542,87627.58594,22.165537,791344.6875,0,1,170,14,1,2779096485
18990977,18990758,-0.171875,0.039062,1.0625,18990760,39,0.483571,18990768,21.574211,31.74,18990930,407,20029,15005,2277,18990977,32.314671,87629.88281,21.800798,102400000,0,1,96,31,1,2779096485
18991996,18991777,-0.195312,0.015625,1.046875,18991779,39,0.49,18991787,21.559048,31.74,18991949,410,20040,15011,2198,18990977,32.314671,87629.88281,21.800798,102400000,0,1,96,31,1,2779096485
18993015,18992796,-0.164062,0.03125,0.992188,18992798,39,0.487857,18992806,21.544075,31.72,18992968,400,20052,15011,2161,18993015,31.611454,87628.40625,21.737766,102400000,0,1,97,41,1,2779096485
18994034,18993815,-0.195312,0.015625,1.039062,18993817,39,0.495,18993825,21.531868,31.74,18993987,407,20053,15011,2150,18993015,31.611454,87628.40625,21.737766,102400000,0,1,97,41,1,2779096485
18995053,18994834,-0.179688,0.023438,1.039062,18994836,39,0.479286,18994844,21.374989,31.71,18995006,400,20054,15011,2182,18993015,31.611454,87628.40625,21.737766,102400000,0,1,97,41,1,2779096485
18996072,18995853,-0.195312,0.023438,1.03125,18995855,39,0.482143,18995863,21.334457,31.7,18996025,400,20062,15019,2140,18993015,31.611454,87628.40625,21.737766,102400000,0,1,97,41,1,2779096485
18997091,18996872,-0.171875,0.015625,1.015625,18996874,39,0.482857,18996882,21.331692,31.74,18997044,400,20063,15020,2108,18993015,31.611454,87628.40625,21.737766,102400000,0,1,97,41,1,2779096485
18998110,18997891,-0.1875,0.007812,1.039062,18997893,39,0.485714,18997901,21.234226,31.78,18998063,400,20058,15014,2147,18993015,31.611454,87628.40625,21.737766,102400000,0,1,97,41,1,2779096485
18999129,18998910,-0.179688,0.03125,1.023438,18998912,39,0.475714,18998920,21.253777,31.76,18999082,401,20061,15016,2161,18993015,31.611454,87628.40625,21.737766,102400000,0,1,97,41,1,2779096485
19000148,18999929,-0.195312,0.023438,1.125,18999931,39,0.465714,18999939,21.300125,31.66,19000101,406,20051,15006,2159,18993015,31.611454,87628.40625,21.737766,102400000,0,1,97,41,1,2779096485
19001167,19000948,-0.15625,0.039062,1.039062,19000950,39,0.385714,19000958,21.41819,31.6,19001120,413,20052,15007,2161,18993015,31.611454,87628.40625,21.737766,102400000,0,1,97,41,1,2779096485
19002186,19001967,-0.195312,0.023438,1.070312,19001969,39,0.472143,19001977,21.629047,31.56,19002139,402,20053,15003,2157,18993015,31.611454,87628.40625,21.737766,102400000,0,1,97,41,1,2779096485
19003205,19002986,-0.171875,0.007812,1.0625,19002988,39,0.422143,19002996,21.6259,31.51,19003158,414,20045,15000,2177,18993015,31.611454,87628.40625,21.737766,102400000,0,1,97,41,1,2779096485
19004224,19004005,-0.171875,0.023438,1.054688,19004007,39,0.405714,19004015,21.870422,31.52,19004177,423,20042,14998,2205,19004224,32.919594,87629.38281,21.888443,811089.125,0,1,170,101,1,2779096485
19005243,19005024,-0.15625,0,1.054688,19005026,39,0.467857,19005034,21.601963,31.47,19005196,413,20043,15003,2152,19005243,32.975044,87630.01563,21.763252,830326.375,0,1,170,106,1,2779096485
19006262,19006043,-0.1875,0.039062,1.046875,19006045,39,0.481429,19006053,21.640873,31.55,19006215,422,20044,14993,2230,19005243,32.975044,87630.01563,21.763252,830326.375,0,1,170,106,1,2779096485
19007281,19007062,-0.1875,0.054688,1.046875,19007064,39,0.485714,19007072,21.573448,31.62,19007234,415,20055,15004,2173,19005243,32.975044,87630.01563,21.763252,830326.375,0,1,170,106,1,2779096485
19008300,19008081,-0.1875,0.070312,1.046875,19008083,39,0.470714,19008091,21.496391,31.63,19008253,428,20044,14994,2203,19005243,32.975044,87630.01563,21.763252,830326.375,0,1,170,106,1,2779096485
19009319,19009100,-0.1875,0.054688,1.046875,19009102,39,0.472857,19009110,21.459293,31.65,19009272,425,20043,14997,2187,19005243,32.975044,87630.01563,21.763252,830326.375,0,1,170,106,1,2779096485
19010338,19010119,-0.179688,0.054688,1.078125,19010121,39,0.472143,19010129,21.421146,31.62,19010291,424,20036,14994,2217,19005243,32.975044,87630.01563,21.763252,830326.375,0,1,170,106,1,2779096485
19011357,19011138,-0.179688,0.023438,1.054688,19011140,39,0.473571,19011148,21.430206,31.7,19011310,405,20047,15005,2145,19005243,32.975044,87630.01563,21.763252,830326.375,0,1,170,106,1,2779096485
19012376,19012157,-0.171875,0.039062,1.0625,19012159,39,0.471429,19012167,21.357536,31.73,19012329,406,20044,15005,2210,19005243,32.975044,87630.01563,21.763252,830326.375,0,1,170,106,1,2779096485
19013395,19013176,-0.171875,0.039062,1.070312,19013178,39,0.49,19013186,21.533298,31.75,19013348,405,20054,15004,2138,19013395,31.518194,87627.97656,21.937206,102400000,0,1,97,148,1,2779096485
19014414,19014195,-0.15625,0.046875,1.023438,19014197,39,0.465714,19014205,21.336651,31.68,19014367,400,20086,15005,1990,19014414,32.150837,87629.47656,22.037046,13770960,0,1,138,153,1,2779096485
19015433,19015214,-0.195312,-0.015625,1.078125,19015216,39,0.477857,19015224,21.32473,31.72,19015386,400,20092,15018,1988,19015433,32.279381,87629.26563,22.020058,13424007,0,1,138,158,1,2779096485
19016452,19016233,-0.171875,0.054688,1.046875,19016235,39,0.448571,19016243,21.572208,31.7,19016405,400,20096,15018,1976,19016452,32.339874,87629.76563,21.977772,13523731,0,1,138,163,1,2779096485
19017471,19017252,-0.171875,0.015625,1.046875,19017254,39,0.467143,19017262,21.345425,31.66,19017424,400,20122,15019,1877,19017471,32.750717,87626.72656,21.943983,730645.75,0,1,170,168,1,2779096485
19018490,19018271,-0.171875,0.0625,1.03125,19018273,39,0.488571,19018281,21.385384,31.69,19018443,400,20152,15011,1690,19018490,32.901951,87629.35156,21.876915,753356.625,0,1,170,173,1,2779096485
19019509,19019290,-0.195312,0.03125,1.039062,19019292,39,0.478571,19019300,21.656895,31.66,19019462,400,20195,15019,1501,19019509,32.967484,87627.72656,21.773052,775170.3125,0,1,170,178,1,2779096485
19020528,19020309,-0.1875,0.039062,1.078125,19020311,39,0.427143,19020319,21.887589,31.51,19020481,400,20216,15022,1425,19020528,32.395329,87632.01563,21.584929,102400000,0,1,96,185,1,2779096485
19021547,19021328,-0.171875,0.015625,1.039062,19021330,39,0.452857,19021338,22.010612,31.31,19021500,400,20225,15040,1399,19020528,32.395329,87632.01563,21.584929,102400000,0,1,96,185,1,2779096485
19022566,19022347,-0.1875,0.03125,1.023438,19022349,39,0.424286,19022357,22.121906,31.19,19022519,400,20217,15038,1462,19022566,31.634136,87628.46875,21.5133,102400000,0,1,97,195,1,2779096485
19023585,19023366,-0.1875,0.015625,0.984375,19023368,39,0.382857,19023376,21.906471,31.09,19023538,400,20199,15032,1542,19022566,31.634136,87628.46875,21.5133,102400000,0,1,97,195,1,2779096485
19024604,19024385,-0.1875,0.023438,1.039062,19024387,39,0.415714,19024395,22.140884,31.04,19024557,400,20181,15027,1568,19022566,31.634136,87628.46875,21.5133,102400000,0,1,97,195,1,2779096485
19025623,19025404,-0.179688,0.015625,1.03125,19025406,39,0.415,19025414,22.226429,30.95,19025576,400,20160,15023,1676,19022566,31.634136,87628.46875,21.5133,102400000,0,1,97,195,1,2779096485
19026642,19026423,-0.179688,0.015625,1.085938,19026425,39,0.414286,19026433,22.171402,30.87,19026595,400,20151,15017,1688,19022566,31.634136,87628.46875,21.5133,102400000,0,1,97,195,1,2779096485
19027661,19027442,-0.171875,0.054688,1.0625,19027444,39,0.396429,19027452,22.165394,30.87,19027614,400,20137,15022,1757,19022566,31.634136,87628.46875,21.5133,102400000,0,1,97,195,1,2779096485
19028680,19028461,-0.195312,0.039062,1.054688,19028463,39,0.415,19028471,22.689438,30.82,19028633,400,20130,15018,1803,19028680,31.397211,87627.625,21.887836,102400000,0,1,97,225,1,2779096485
19029699,19029480,-0.179688,0.023438,1.015625,19029482,39,0.465714,19029490,22.69249,30.7,19029652,400,20120,15026,1845,19029699,32.057579,87631.50781,22.020351,15000229,0,1,138,230,1,2779096485
19030718,19030499,-0.1875,0.0625,1.015625,19030501,39,0.434286,19030509,22.656631,30.62,19030671,400,20112,15021,1868,19029699,32.057579,87631.50781,22.020351,15000229,0,1,138,230,1,2779096485
19031737,19031518,-0.1875,0.023438,1.03125,19031520,39,0.433571,19031528,22.744083,30.55,19031690,400,20112,15024,1926,19029699,32.057579,87631.50781,22.020351,15000229,0,1,138,230,1,2779096485
19032756,19032537,-0.1875,0,1.023438,19032539,39,0.445,19032547,22.772312,30.49,19032709,400,20103,15014,1953,19029699,32.057579,87631.50781,22.020351,15000229,0,1,138,230,1,2779096485
19033775,19033556,-0.171875,0,1.03125,19033558,39,0.392857,19033566,22.676086,30.46,19033728,401,20091,15008,1949,19029699,32.057579,87631.50781,22.020351,15000229,0,1,138,230,1,2779096485
19034794,19034575,-0.1875,0,1.03125,19034577,39,0.435,19034585,22.874451,30.41,19034747,409,20083,15011,2013,19029699,32.057579,87631.50781,22.020351,15000229,0,1,138,230,1,2779096485
19035813,19035594,-0.164062,0.023438,1.101562,19035596,39,0.419286,19035604,23.01693,30.32,19035766,401,20081,15007,2055,19035813,32.266781,87630.28906,21.581417,102400000,0,1,97,6,1,2779096485
19036832,19036613,-0.195312,0.007812,1.070312,19036615,39,0.481429,19036623,22.87302,30.32,19036785,410,20074,15011,2048,19035813,32.266781,87630.28906,21.581417,102400000,0,1,97,6,1,2779096485
19037851,19037632,-0.1875,0.054688,1.054688,19037634,39,0.480714,19037642,23.093319,30.34,19037804,400,20075,15014,2069,19035813,32.266781,87630.28906,21.581417,102400000,0,1,97,6,1,2779096485
19038870,19038651,-0.1875,0.015625,1.023438,19038653,39,0.446429,19038661,22.9743,30.28,19038823,408,20063,15004,2113,19035813,32.266781,87630.28906,21.581417,102400000,0,1,97,6,1,2779096485
19039889,19039670,-0.15625,0.015625,1.015625,19039672,39,0.483571,19039680,22.940254,30.3,19039842,406,20067,15011,2103,19035813,32.266781,87630.28906,21.581417,102400000,0,1,97,6,1,2779096485
19040908,19040689,-0.203125,0,1.046875,19040691,39,0.486429,19040699,22.841835,30.33,19040861,407,20064,15016,2136,19035813,32.266781,87630.28906,21.581417,102400000,0,1,97,6,1,2779096485
19041927,19041708,-0.171875,0.023438,1.039062,19041710,39,0.478571,19041718,22.708797,30.38,19041880,400,20064,15011,2113,19035813,32.266781,87630.28906,21.581417,102400000,0,1,97,6,1,2779096485
19042946,19042727,-0.195312,0.007812,1.039062,19042729,39,0.487143,19042737,22.601604,30.42,19042899,407,20063,15012,2138,19035813,32.266781,87630.28906,21.581417,102400000,0,1,97,6,1,2779096485
19043965,19043746,-0.171875,-0.007812,1.085938,19043748,39,0.481429,19043756,22.759628,30.45,19043918,402,20054,15017,2120,19035813,32.266781,87630.28906,21.581417,102400000,0,1,97,6,1,2779096485
19044984,19044765,-0.195312,0.007812,1.046875,19044767,39,0.477143,19044775,22.607517,30.38,19044937,420,20042,15001,2214,19044984,32.133194,87630.29688,22.087433,16396297,0,1,138,56,1,2779096485
19046003,19045784,-0.179688,0.03125,1.046875,19045786,39,0.478571,19045794,22.676086,30.42,19045956,421,20044,14996,2226,19046003,32.183601,87631.125,22.034134,16748275,0,1,138,61,1,2779096485
19047022,19046803,-0.1875,0,1.0625,19046805,39,0.465714,19046813,22.956371,30.35,19046975,419,20038,15000,2240,19047022,32.602009,87627.07813,22.000891,779596.5,0,1,170,66,1,2779096485
19048041,19047822,-0.171875,0.03125,1.039062,19047824,39,0.474286,19047832,22.805882,30.29,19047994,418,20037,15002,2272,19048041,32.753239,87627.78125,21.944153,801095.25,0,1,170,71,1,2779096485
19049060,19048841,-0.179688,0,1.046875,19048843,39,0.473571,19048851,22.93539,30.29,19049013,418,20035,15001,2235,19049060,32.823814,87628.8125,21.830305,825806.4375,0,1,170,76,1,2779096485
19050079,19049860,-0.171875,0.03125,1.070312,19049862,39,0.475714,19049870,23.005199,30.3,19050032,426,20026,15003,2284,19050079,32.881783,87627.20313,21.756905,849968.875,0,1,170,81,1,2779096485
19051098,19050879,-0.1875,0,1.054688,19050881,39,0.478571,19050889,22.953415,30.35,19051051,427,20023,14999,2290,19050079,32.881783,87627.20313,21.756905,849968.875,0,1,170,81,1,2779096485
19052117,19051898,-0.179688,0.007812,1.09375,19051900,39,0.477143,19051908,22.848988,30.38,19052070,424,20010,14991,2295,19050079,32.881783,87627.20313,21.756905,849968.875,0,1,170,81,1,2779096485
19053136,19052917,-0.179688,0.015625,1.109375,19052919,39,0.478571,19052927,23.096657,30.41,19053089,414,20022,14997,2258,19050079,32.881783,87627.20313,21.756905,849968.875,0,1,170,81,1,2779096485
19054155,19053936,-0.171875,0,1.070312,19053938,39,0.444286,19053946,23.072338,30.33,19054108,417,20018,15004,2332,19050079,32.881783,87627.20313,21.756905,849968.875,0,1,170,81,1,2779096485
19055174,19054955,-0.15625,0.007812,1.046875,19054957,39,0.482143,19054965,22.793388,30.34,19055127,404,20024,15004,2311,19050079,32.881783,87627.20313,21.756905,849968.875,0,1,170,81,1,2779096485
19056193,19055974,-0.179688,0,1.046875,19055976,39,0.481429,19055984,22.750092,30.42,19056146,415,20013,15003,2357,19050079,32.881783,87627.20313,21.756905,849968.875,0,1,170,81,1,2779096485
19057212,19056993,-0.15625,0.023438,1.039062,19056995,39,0.482143,19057003,22.704697,30.5,19057165,417,20008,14997,2337,19050079,32.881783,87627.20313,21.756905,849968.875,0,1,170,81,1,2779096485
19058231,19058012,-0.1875,0.023438,1.070312,19058014,39,0.476429,19058022,22.663689,30.56,19058184,424,20009,15001,2348,19058231,31.435019,87626.17188,22.013926,102400000,0,1,97,123,1,2779096485
19059250,19059031,-0.164062,0.023438,1.023438,19059033,39,0.479286,19059041,22.648335,30.59,19059203,428,20005,14994,2369,19059250,32.092865,87627.92969,22.120785,16225798,0,1,138,128,1,2779096485
19060269,19060050,-0.179688,0.023438,1.03125,19060052,39,0.474286,19060060,22.652149,30.63,19060222,425,20005,15001,2404,19060269,32.234016,87629.67969,22.140818,16384000,0,1,138,133,1,2779096485
19061288,19061069,-0.164062,0.03125,1.0625,19061071,39,0.472857,19061079,22.709751,30.64,19061241,423,20005,14995,2380,19061288,32.289467,87630.69531,22.108488,16310602,0,1,138,138,1,2779096485
19062307,19062088,-0.1875,0.03125,1.117188,19062090,39,0.477857,19062098,22.753334,30.71,19062260,441,19992,14985,2413,19062307,32.725513,87628.23438,22.097181,774291.125,0,1,170,143,1,2779096485
19063337,19063118,-0.1875,0.03125,1.070312,19063120,39,0.477143,19063128,22.7705,30.73,19063290,433,20005,14987,2401,19062307,32.725513,87628.23438,22.097181,774291.125,0,1,170,143,1,2779096485
19064356,19064137,-0.1875,0.046875,1.039062,19064139,39,0.475714,19064147,22.546482,30.75,19064309,440,19984,14980,2452,19062307,32.725513,87628.23438,22.097181,774291.125,0,1,170,143,1,2779096485
19065375,19065156,-0.179688,0.007812,1.070312,19065158,39,0.475714,19065166,22.486019,30.79,19065328,431,19990,14988,2387,19065375,32.397846,87630.96094,21.785841,102400000,0,1,96,160,1,2779096485
19066394,19066175,-0.164062,0.046875,1.0625,19066177,39,0.465714,19066185,22.418308,30.74,19066347,422,19994,14992,2413,19065375,32.397846,87630.96094,21.785841,102400000,0,1,96,160,1,2779096485
19067413,19067194,-0.179688,0.046875,1.054688,19067196,39,0.477143,19067204,22.333431,30.76,19067366,430,19988,14988,2454,19067413,31.682026,87626.15625,21.66543,102400000,0,1,97,170,1,2779096485
19068432,19068213,-0.179688,0.039062,1.023438,19068215,39,0.466429,19068223,22.333813,30.77,19068385,430,19995,15001,2436,19067413,31.682026,87626.15625,21.66543,102400000,0,1,97,170,1,2779096485
19069451,19069232,-0.179688,0.046875,1.03125,19069234,39,0.471429,19069242,22.256374,30.74,19069404,425,19989,14990,2464,19067413,31.682026,87626.15625,21.66543,102400000,0,1,97,170,1,2779096485
19070470,19070251,-0.171875,0.03125,1.078125,19070253,39,0.478571,19070261,22.246456,30.79,19070423,433,19976,14983,2535,19067413,31.682026,87626.15625,21.66543,102400000,0,1,97,170,1,2779096485
19071489,19071270,-0.21875,0.03125,1.039062,19071272,39,0.485714,19071280,22.198772,30.84,19071442,434,19981,14989,2484,19067413,31.682026,87626.15625,21.66543,102400000,0,1,97,170,1,2779096485
19072508,19072289,-0.171875,0.046875,1.0625,19072291,39,0.482857,19072299,22.387981,30.87,19072461,424,19977,14991,2517,19067413,31.682026,87626.15625,21.66543,102400000,0,1,97,170,1,2779096485
19073527,19073308,-0.195312,0.023438,1.070312,19073310,39,0.480714,19073318,22.158241,30.84,19073480,428,19974,14986,2507,19067413,31.682026,87626.15625,21.66543,102400000,0,1,97,170,1,2779096485
19074546,19074327,-0.15625,0.015625,1.0625,19074329,39,0.485714,19074337,22.19162,30.87,19074499,427,19969,14987,2514,19067413,31.682026,87626.15625,21.66543,102400000,0,1,97,170,1,2779096485
19075565,19075346,-0.1875,0.03125,1.046875,19075348,39,0.480714,19075356,22.135925,30.89,19075518,431,19972,14993,2540,19067413,31.682026,87626.15625,21.66543,102400000,0,1,97,170,1,2779096485
19076584,19076365,-0.179688,0.03125,1.023438,19076367,39,0.478571,19076375,22.132587,30.91,19076537,424,19969,14991,2547,19067413,31.682026,87626.15625,21.66543,102400000,0,1,97,170,1,2779096485
19077603,19077384,-0.171875,0.03125,1.0625,19077386,39,0.486429,19077394,22.185612,30.91,19077556,433,19955,14992,2533,19067413,31.682026,87626.15625,21.66543,102400000,0,1,97,170,1,2779096485
19078622,19078403,-0.1875,0.023438,1.078125,19078405,39,0.485,19078413,22.204685,30.93,19078575,430,19964,14989,2586,19078622,32.987648,87628.82813,21.753796,828311.4375,0,1,170,230,1,2779096485
19079641,19079422,-0.1875,0.03125,1.078125,19079424,39,0.498571,19079432,22.158432,30.97,19079594,429,19973,14991,2519,19079641,33.030495,87627.53125,21.638151,860685,0,1,170,235,1,2779096485
19080660,19080441,-0.1875,0.015625,1.070312,19080443,39,0.477857,19080451,22.085762,31.01,19080613,422,19966,14998,2537,19079641,33.030495,87627.53125,21.638151,860685,0,1,170,235,1,2779096485
19081679,19081460,-0.179688,0.046875,1.078125,19081462,39,0.480714,19081470,22.060394,31.05,19081632,420,19971,14996,2526,19079641,33.030495,87627.53125,21.638151,860685,0,1,170,235,1,2779096485
19082698,19082479,-0.179688,0.015625,1.078125,19082481,39,0.485,19082489,22.066784,31.06,19082651,424,19964,14991,2567,19079641,33.030495,87627.53125,21.638151,860685,0,1,170,235,1,2779096485
19083717,19083498,-0.179688,0.039062,1.070312,19083500,39,0.482857,19083508,22.050858,31.07,19083670,425,19968,14993,2547,19079641,33.030495,87627.53125,21.638151,860685,0,1,170,235,1,2779096485
19084736,19084517,-0.171875,0.007812,1.070312,19084519,39,0.482143,19084527,22.042561,31.08,19084689,426,19972,14989,2567,19079641,33.030495,87627.53125,21.638151,860685,0,1,170,235,1,2779096485
19085755,19085536,-0.1875,0.015625,1.023438,19085538,39,0.479286,19085546,22.037792,31.08,19085708,422,19966,14991,2595,19079641,33.030495,87627.53125,21.638151,860685,0,1,170,235,1,2779096485
19086774,19086555,-0.195312,0.03125,1.03125,19086557,39,0.483571,19086565,22.003937,31.06,19086727,420,19963,14994,2561,19079641,33.030495,87627.53125,21.638151,860685,0,1,170,235,1,2779096485
19087793,19087574,-0.1875,0.007812,1.023438,19087576,39,0.481429,19087584,22.028255,31.04,19087746,411,19973,14999,2480,19087793,31.523235,87625.36719,21.855217,102400000,0,1,97,21,1,2779096485
19088812,19088593,-0.179688,0.015625,1.03125,19088595,39,0.485714,19088603,22.087765,31.07,19088765,423,19965,14994,2563,19088812,32.16848,87627.76563,21.966057,16482897,0,1,138,26,1,2779096485
19089831,19089612,-0.179688,0.03125,1.078125,19089614,39,0.488571,19089622,22.051239,31.07,19089784,428,19973,14991,2549,19089831,32.307106,87630.39063,21.975533,16458061,0,1,138,31,1,2779096485
19090850,19090631,-0.195312,0.023438,1.0625,19090633,39,0.482143,19090641,22.071743,31.07,19090803,425,19972,14995,2524,19090850,32.360039,87629.29688,21.943048,16786886,0,1,138,36,1,2779096485
19091869,19091650,-0.171875,0.054688,1.046875,19091652,39,0.485,19091660,22.028255,31.09,19091822,434,19966,14989,2567,19091869,32.780964,87628.19531,21.935728,781381.125,0,1,170,41,1,2779096485
19092888,19092669,-0.179688,0,1.0625,19092671,39,0.485,19092679,22.046375,31.07,19092841,436,19954,14980,2604,19092888,32.90699,87628.125,21.846298,789971.0625,0,1,170,46,1,2779096485
19093907,19093688,-0.171875,0.015625,1.070312,19093690,39,0.482143,19093698,22.061825,31.08,19093860,441,19960,14985,2595,19093907,32.975044,87626.35156,21.752939,825307.25,0,1,170,51,1,2779096485
19094926,19094707,-0.171875,0.015625,1.0625,19094709,39,0.487143,19094717,22.044277,31.15,19094879,432,19958,14984,2572,19094926,32.455818,87626.72656,21.558147,102400000,0,1,96,58,1,2779096485
19095945,19095726,-0.171875,0.023438,1.007812,19095728,39,0.478571,19095736,21.968555,31.2,19095898,433,19969,14990,2563,19094926,32.455818,87626.72656,21.558147,102400000,0,1,96,58,1,2779096485
19096964,19096745,-0.210938,0.015625,1.101562,19096747,39,0.487143,19096755,21.925831,31.26,19096917,437,19953,14984,2607,19096964,31.760162,87627.40625,21.475534,102400000,0,1,97,68,1,2779096485
19097983,19097764,-0.15625,0.007812,1.039062,19097766,39,0.468571,19097774,22.179031,31.23,19097936,440,19947,14983,2616,19096964,31.760162,87627.40625,21.475534,102400000,0,1,97,68,1,2779096485
19099002,19098783,-0.1875,0.007812,1.109375,19098785,39,0.470714,19098793,22.002506,31.16,19098955,432,19953,14985,2627,19096964,31.760162,87627.40625,21.475534,102400000,0,1,97,68,1,2779096485
19100021,19099802,-0.195312,0.023438,1.046875,19099804,39,0.469286,19099812,22.068977,31.21,19099974,440,19952,14984,2651,19096964,31.760162,87627.40625,21.475534,102400000,0,1,97,68,1,2779096485
19101040,19100821,-0.179688,0.03125,1.0625,19100823,39,0.469286,19100831,22.215748,31.19,19100993,439,19954,14983,2627,19096964,31.760162,87627.40625,21.475534,102400000,0,1,97,68,1,2779096485
19102059,19101840,-0.171875,0.039062,1.046875,19101842,39,0.472857,19101850,22.288609,31.21,19102012,445,19950,14974,2648,19096964,31.760162,87627.40625,21.475534,102400000,0,1,97,68,1,2779096485
19103078,19102859,-0.179688,0.023438,1.03125,19102861,39,0.477143,19102869,22.422028,31.23,19103031,450,19951,14969,2632,19103078,31.603891,87628.21094,21.958479,102400000,0,1,97,98,1,2779096485
19104097,19103878,-0.164062,0.015625,1.101562,19103880,39,0.490714,19103888,22.257996,31.29,19104050,448,19955,14983,2634,19104097,32.256699,87628.51563,22.116558,16274149,0,1,138,103,1,2779096485
19105116,19104897,-0.171875,0.023438,1.054688,19104899,39,0.475714,19104907,22.048378,31.35,19105069,449,19949,14974,2602,19104097,32.256699,87628.51563,22.116558,16274149,0,1,138,103,1,2779096485
19106135,19105916,-0.171875,0.039062,1.046875,19105918,39,0.480714,19105926,21.841621,31.38,19106088,448,19967,14978,2579,19104097,32.256699,87628.51563,22.116558,16274149,0,1,138,103,1,2779096485
19107154,19106935,-0.1875,0.03125,1.070312,19106937,39,0.482143,19106945,21.705246,31.39,19107107,439,19977,14983,2526,19104097,32.256699,87628.51563,22.116558,16274149,0,1,138,103,1,2779096485
19108173,19107954,-0.171875,0.03125,1.007812,19107956,39,0.482857,19107964,21.674633,31.41,19108126,423,20001,14991,2392,19104097,32.256699,87628.51563,22.116558,16274149,0,1,138,103,1,2779096485
19109192,19108973,-0.179688,0.023438,1.046875,19108975,39,0.482143,19108983,21.616364,31.41,19109145,409,20024,15008,2302,19104097,32.256699,87628.51563,22.116558,16274149,0,1,138,103,1,2779096485
19110211,19109992,-0.148438,0,1.023438,19109994,39,0.477857,19110002,21.66481,31.4,19110164,408,20041,15008,2233,19110211,32.475983,87628.35156,21.59551,102400000,0,1,96,135,1,2779096485
19111230,19111011,-0.179688,0.039062,1.0625,19111013,39,0.481429,19111021,21.656609,31.43,19111183,419,20079,14994,2071,19110211,32.475983,87628.35156,21.59551,102400000,0,1,96,135,1,2779096485
19112249,19112030,-0.171875,0.007812,1.039062,19112032,39,0.480714,19112040,21.669579,31.45,19112202,419,20115,15000,1859,19110211,32.475983,87628.35156,21.59551,102400000,0,1,96,135,1,2779096485
19113268,19113049,-0.171875,0.007812,1.054688,19113051,39,0.485714,19113059,21.751881,31.47,19113221,414,20148,15003,1736,19110211,32.475983,87628.35156,21.59551,102400000,0,1,96,135,1,2779096485
19114287,19114068,-0.1875,0.039062,1.054688,19114070,39,0.502143,19114078,21.714592,31.48,19114240,415,20199,14998,1506,19110211,32.475983,87628.35156,21.59551,102400000,0,1,96,135,1,2779096485
19115306,19115087,-0.179688,0.023438,1.078125,19115089,39,0.497857,19115097,21.823597,31.51,19115259,423,20235,14996,1360,19110211,32.475983,87628.35156,21.59551,102400000,0,1,96,135,1,2779096485
19116325,19116106,-0.179688,0.054688,1.046875,19116108,39,0.474286,19116116,21.803284,31.49,19116278,418,20259,15006,1294,19110211,32.475983,87628.35156,21.59551,102400000,0,1,96,135,1,2779096485
19117344,19117125,-0.171875,0.054688,1.03125,19117127,39,0.477143,19117135,21.630859,31.52,19117297,400,20276,15026,1272,19110211,32.475983,87628.35156,21.59551,102400000,0,1,96,135,1,2779096485
19118363,19118144,-0.171875,0.023438,1.03125,19118146,39,0.481429,19118154,21.460819,31.53,19118316,400,20265,15041,1254,19110211,32.475983,87628.35156,21.59551,102400000,0,1,96,135,1,2779096485
19119382,19119163,-0.1875,0.03125,1.039062,19119165,39,0.486429,19119173,21.405983,31.58,19119335,400,20265,15046,1286,19110211,32.475983,87628.35156,21.59551,102400000,0,1,96,135,1,2779096485
19120401,19120182,-0.179688,0.023438,1.015625,19120184,39,0.485,19120192,21.369267,31.62,19120354,400,20246,15048,1331,19120401,32.360039,87628.42188,21.937893,11481430,0,1,138,190,1,2779096485
19121420,19121201,-0.1875,0.023438,1.070312,19121203,39,0.463571,19121211,21.374798,31.54,19121373,400,20228,15047,1339,19121420,32.801128,87627.35938,21.900982,692125.6875,0,1,170,195,1,2779096485
19122439,19122220,-0.179688,0.023438,1.0625,19122222,39,0.481429,19122230,21.425152,31.57,19122392,400,20215,15053,1462,19122439,32.922112,87627.11719,21.816376,736955.75,0,1,170,200,1,2779096485
19123458,19123239,-0.171875,0.015625,1.03125,19123241,39,0.471429,19123249,21.461487,31.54,19123411,400,20193,15042,1489,19123458,32.970005,87626.86719,21.716503,778707.25,0,1,170,205,1,2779096485
19124477,19124258,-0.171875,0.039062,1.046875,19124260,39,0.476429,19124268,21.41571,31.54,19124430,400,20190,15039,1552,19124477,33.015373,87629.0625,21.580458,817401.6875,0,1,170,210,1,2779096485
19125496,19125277,-0.1875,0.046875,1.03125,19125279,39,0.470714,19125287,21.397495,31.55,19125449,400,20182,15048,1619,19124477,33.015373,87629.0625,21.580458,817401.6875,0,1,170,210,1,2779096485
